targ_direction;stroop_cong;trial_start;targ_pos;total_time;target_name;soa_onset;cue_pos;response;trial_number;congruent;SOA;cue_onset;fix_onset;rt;repetition;targ_onset;condition;Accuracy
-5;-1;0.0;5;3.146;Left;0.802;5;lctrl;1;1;48;0.752;0.0;0.518;1;1.603;practice;1
5;-1;0.0;-5;2.364;Right;0.802;5;rctrl;2;-1;3;0.752;0.0;0.491;1;0.852;practice;1
5;1;0.0;5;2.255;Right;0.801;5;rctrl;3;1;3;0.751;0.0;0.396;0;0.856;practice;1
-5;-1;0.0;5;3.009;Left;0.803;-5;lctrl;4;-1;48;0.753;0.0;0.391;2;1.605;practice;1
-5;-1;0.0;5;2.592;Left;0.802;5;lctrl;5;1;3;0.752;0.0;0.714;2;0.852;practice;1
5;-1;0.0;-5;2.318;Right;0.801;5;rctrl;6;-1;3;0.751;0.0;0.452;2;0.851;practice;1
-5;-1;0.0;5;2.323;Left;0.802;-5;lctrl;7;-1;3;0.752;0.0;0.444;2;0.852;practice;1
5;1;0.0;5;3.066;Right;0.801;-5;rctrl;8;-1;48;0.751;0.0;0.442;1;1.604;practice;1
5;-1;0.0;-5;2.411;Right;0.801;5;rctrl;9;-1;3;0.751;0.0;0.546;3;0.851;practice;1
-5;1;0.0;-5;3.034;Left;0.806;-5;lctrl;10;1;48;0.756;0.0;0.411;2;1.607;practice;1
5;-1;0.0;-5;3.082;Right;0.801;-5;rctrl;11;1;48;0.751;0.0;0.453;3;1.604;practice;1
5;-1;0.0;-5;3.082;Right;0.801;5;rctrl;12;-1;48;0.751;0.0;0.452;0;1.604;practice;1
5;1;0.0;5;3.191;Right;0.806;5;rctrl;13;1;48;0.756;0.0;0.567;0;1.608;practice;1
-5;1;0.0;-5;3.072;Left;0.802;5;lctrl;14;-1;48;0.752;0.0;0.451;1;1.604;practice;1
5;-1;0.0;-5;3.134;Right;0.807;5;rctrl;15;-1;48;0.757;0.0;0.503;1;1.608;practice;1
5;1;0.0;5;2.52;Right;0.804;-5;rctrl;16;-1;3;0.754;0.0;0.65;2;0.855;practice;1
5;1;0.0;5;2.369;Right;0.802;5;rctrl;17;1;3;0.752;0.0;0.49;2;0.852;practice;1
5;1;0.0;5;2.269;Right;0.802;5;rctrl;18;1;3;0.752;0.0;0.394;3;0.852;practice;1
-5;1;0.0;-5;2.926;Left;0.801;5;lctrl;19;-1;48;0.751;0.0;0.306;2;1.607;practice;1
-5;-1;0.0;5;3.215;Left;0.803;5;lctrl;20;1;48;0.752;0.0;0.584;0;1.605;practice;1
-5;1;0.0;-5;2.286;Left;0.802;-5;lctrl;21;1;3;0.752;0.0;0.411;3;0.852;practice;1
-5;1;0.0;-5;2.253;Left;0.801;-5;lctrl;22;1;3;0.751;0.0;0.389;2;0.851;practice;1
-5;1;0.0;-5;2.246;Left;0.802;5;lctrl;23;-1;3;0.751;0.0;0.376;3;0.852;practice;1
5;1;0.0;5;2.271;Right;0.801;5;rctrl;24;1;3;0.751;0.0;0.395;1;0.851;practice;1
-5;-1;0.0;5;2.318;Left;0.802;5;lctrl;25;1;3;0.752;0.0;0.445;3;0.852;practice;1
5;-1;0.0;-5;3.16;Right;0.801;5;rctrl;26;-1;48;0.751;0.0;0.538;2;1.603;practice;1
5;1;0.0;5;3.126;Right;0.806;5;rctrl;27;1;48;0.756;0.0;0.499;3;1.608;practice;1
5;-1;0.0;-5;3.136;Right;0.802;-5;rctrl;28;1;48;0.752;0.0;0.506;0;1.604;practice;1
-5;-1;0.0;5;2.614;Left;0.806;-5;lctrl;29;-1;3;0.756;0.0;0.743;0;0.856;practice;1
5;1;0.0;5;3.173;Right;0.801;-5;rctrl;30;-1;48;0.751;0.0;0.532;0;1.604;practice;1
-5;-1;0.0;5;3.111;Left;0.802;5;lctrl;31;1;48;0.752;0.0;0.492;2;1.605;practice;1
5;-1;0.0;-5;2.423;Right;0.802;-5;rctrl;32;1;3;0.752;0.0;0.547;3;0.852;practice;1
5;1;0.0;5;3.045;Right;0.803;-5;rctrl;1;-1;48;0.752;0.0;0.424;0;1.605;ex1;1
-5;1;0.0;-5;2.284;Left;0.802;5;lctrl;2;-1;3;0.752;0.0;0.417;2;0.852;ex1;1
5;-1;0.0;-5;3.038;Right;0.806;-5;rctrl;3;1;48;0.756;0.0;0.405;3;1.609;ex1;1
-5;-1;0.0;5;2.364;Left;0.801;-5;lctrl;4;-1;3;0.751;0.0;0.486;2;0.851;ex1;1
5;-1;0.0;-5;2.287;Right;0.802;5;rctrl;5;-1;3;0.752;0.0;0.405;2;0.857;ex1;1
5;-1;0.0;-5;2.988;Right;0.801;5;rctrl;6;-1;48;0.751;0.0;0.381;3;1.604;ex1;1
-5;-1;0.0;5;3.042;Left;0.803;-5;lctrl;7;-1;48;0.753;0.0;0.424;0;1.605;ex1;1
5;1;0.0;5;2.322;Right;0.802;-5;rctrl;8;-1;3;0.752;0.0;0.453;2;0.852;ex1;1
-5;-1;0.0;5;2.296;Left;0.8;5;lctrl;9;1;3;0.751;0.0;0.431;3;0.851;ex1;1
-5;1;0.0;-5;2.413;Left;0.801;-5;lctrl;10;1;3;0.751;0.0;0.545;0;0.852;ex1;1
5;-1;0.0;-5;3.082;Right;0.801;5;rctrl;11;-1;48;0.751;0.0;0.453;2;1.604;ex1;1
5;1;0.0;5;3.082;Right;0.805;5;rctrl;12;1;48;0.755;0.0;0.458;3;1.607;ex1;1
5;-1;0.0;-5;2.425;Right;0.802;-5;rctrl;13;1;3;0.751;0.0;0.546;0;0.852;ex1;1
5;-1;0.0;-5;3.129;Right;0.801;-5;rctrl;14;1;48;0.751;0.0;0.514;1;1.604;ex1;1
-5;1;0.0;-5;2.378;Left;0.802;-5;lctrl;15;1;3;0.752;0.0;0.505;1;0.852;ex1;1
-5;-1;0.0;5;3.081;Left;0.802;5;lctrl;16;1;48;0.752;0.0;0.462;3;1.604;ex1;1
-5;1;0.0;-5;3.207;Left;0.806;5;lctrl;17;-1;48;0.756;0.0;0.578;3;1.608;ex1;1
-5;-1;0.0;5;3.144;Left;0.8;5;lctrl;18;1;48;0.75;0.0;0.523;1;1.602;ex1;1
-5;1;0.0;-5;2.394;Left;0.806;5;lctrl;19;-1;3;0.756;0.0;0.524;0;0.856;ex1;1
-5;1;0.0;-5;2.28;Left;0.802;5;lctrl;20;-1;3;0.752;0.0;0.409;1;0.852;ex1;1
-5;1;0.0;-5;2.302;Left;0.801;-5;lctrl;21;1;3;0.751;0.0;0.435;2;0.851;ex1;1
5;-1;0.0;-5;2.713;Right;0.803;-5;rctrl;22;1;3;0.753;0.0;0.835;2;0.853;ex1;1
-5;-1;0.0;5;3.098;Left;0.806;5;lctrl;23;1;48;0.756;0.0;0.463;0;1.608;ex1;1
5;1;0.0;5;2.302;Right;0.803;5;rctrl;24;1;3;0.753;0.0;0.426;2;0.853;ex1;1
5;1;0.0;5;2.224;Right;0.801;5;rctrl;25;1;3;0.751;0.0;0.359;3;0.851;ex1;1
5;1;0.0;5;3.031;Right;0.801;5;rctrl;26;1;48;0.751;0.0;0.407;2;1.608;ex1;1
-5;-1;0.0;5;3.328;Left;0.8;-5;lctrl;27;-1;48;0.75;0.0;0.705;3;1.604;ex1;1
-5;-1;0.0;5;3.172;Left;0.801;-5;lctrl;28;-1;48;0.751;0.0;0.552;2;1.604;ex1;1
5;-1;0.0;-5;2.372;Right;0.802;5;rctrl;29;-1;3;0.752;0.0;0.5;3;0.852;ex1;1
-5;-1;0.0;5;2.404;Left;0.806;5;lctrl;30;1;3;0.757;0.0;0.526;1;0.856;ex1;1
5;-1;0.0;-5;3.035;Right;0.8;-5;rctrl;31;1;48;0.75;0.0;0.411;2;1.601;ex1;1
5;-1;0.0;-5;2.3;Right;0.802;5;rctrl;32;-1;3;0.752;0.0;0.428;1;0.852;ex1;1
5;1;0.0;5;2.988;Right;0.801;5;rctrl;33;1;48;0.751;0.0;0.371;0;1.602;ex1;1
-5;-1;0.0;5;2.31;Left;0.807;-5;lctrl;34;-1;3;0.757;0.0;0.441;0;0.857;ex1;1
-5;1;0.0;-5;2.28;Left;0.801;5;lctrl;35;-1;3;0.751;0.0;0.404;3;0.851;ex1;1
-5;1;0.0;-5;3.082;Left;0.801;5;lctrl;36;-1;48;0.751;0.0;0.461;2;1.603;ex1;1
-5;-1;0.0;5;2.396;Left;0.801;-5;lctrl;37;-1;3;0.751;0.0;0.532;3;0.851;ex1;1
5;1;0.0;5;3.02;Right;0.806;-5;rctrl;38;-1;48;0.756;0.0;0.389;1;1.608;ex1;1
-5;1;0.0;-5;3.098;Left;0.801;-5;lctrl;39;1;48;0.751;0.0;0.48;1;1.602;ex1;1
-5;1;0.0;-5;2.942;Left;0.801;-5;lctrl;40;1;48;0.751;0.0;0.33;2;1.608;ex1;1
5;1;0.0;5;3.01;Right;0.802;-5;rctrl;41;-1;48;0.752;0.0;0.384;3;1.604;ex1;1
5;1;0.0;5;3.062;Right;0.801;5;rctrl;42;1;48;0.752;0.0;0.437;1;1.602;ex1;1
5;1;0.0;5;3.051;Right;0.801;-5;rctrl;43;-1;48;0.751;0.0;0.43;2;1.604;ex1;1
-5;1;0.0;-5;2.3;Left;0.802;-5;lctrl;44;1;3;0.752;0.0;0.426;3;0.852;ex1;1
5;-1;0.0;-5;3.16;Right;0.801;5;rctrl;45;-1;48;0.751;0.0;0.535;1;1.604;ex1;1
-5;1;0.0;-5;3.0;Left;0.806;-5;lctrl;46;1;48;0.756;0.0;0.368;0;1.609;ex1;1
5;1;0.0;5;2.253;Right;0.802;5;rctrl;47;1;3;0.752;0.0;0.388;0;0.852;ex1;1
5;1;0.0;5;2.2;Right;0.803;5;rctrl;48;1;3;0.753;0.0;0.334;1;0.853;ex1;1
5;-1;0.0;-5;2.414;Right;0.801;-5;rctrl;49;1;3;0.751;0.0;0.54;3;0.851;ex1;1
-5;-1;0.0;5;2.349;Left;0.804;-5;lctrl;50;-1;3;0.754;0.0;0.467;1;0.855;ex1;1
-5;1;0.0;-5;3.004;Left;0.8;-5;lctrl;51;1;48;0.75;0.0;0.381;3;1.602;ex1;1
-5;1;0.0;-5;3.066;Left;0.806;5;lctrl;52;-1;48;0.756;0.0;0.436;0;1.608;ex1;1
5;1;0.0;5;2.3;Right;0.802;-5;rctrl;53;-1;3;0.752;0.0;0.421;3;0.852;ex1;1
5;1;0.0;5;2.302;Right;0.805;-5;rctrl;54;-1;3;0.755;0.0;0.43;1;0.856;ex1;1
-5;-1;0.0;5;3.113;Left;0.801;-5;lctrl;55;-1;48;0.751;0.0;0.485;1;1.604;ex1;1
5;-1;0.0;-5;3.05;Right;0.802;-5;rctrl;56;1;48;0.752;0.0;0.428;0;1.604;ex1;1
-5;1;0.0;-5;3.002;Left;0.802;5;lctrl;57;-1;48;0.752;0.0;0.386;1;1.603;ex1;1
-5;-1;0.0;5;2.634;Left;0.802;5;rctrl;58;1;3;0.752;0.0;0.733;2;0.852;ex1;0
5;-1;0.0;-5;2.317;Right;0.807;-5;rctrl;59;1;3;0.757;0.0;0.438;1;0.857;ex1;1
-5;-1;0.0;5;2.972;Left;0.802;5;lctrl;60;1;48;0.752;0.0;0.351;2;1.604;ex1;1
-5;-1;0.0;5;2.231;Left;0.803;5;lctrl;61;1;3;0.753;0.0;0.363;0;0.853;ex1;1
5;1;0.0;5;2.286;Right;0.806;-5;rctrl;62;-1;3;0.756;0.0;0.41;0;0.856;ex1;1
5;-1;0.0;-5;3.035;Right;0.801;5;rctrl;63;-1;48;0.751;0.0;0.417;0;1.604;ex1;1
5;-1;0.0;-5;2.445;Right;0.802;5;rctrl;64;-1;3;0.752;0.0;0.57;0;0.852;ex1;1
-5;1;0.0;-5;2.289;Left;0.801;-5;lctrl;1;1;3;0.751;0.0;0.419;3;0.851;ex2;1
-5;1;0.0;-5;2.234;Left;0.803;-5;lctrl;2;1;3;0.752;0.0;0.364;2;0.853;ex2;1
5;-1;0.0;-5;2.24;Right;0.805;5;lctrl;3;-1;3;0.755;0.0;0.336;1;0.856;ex2;0
-5;-1;0.0;5;3.097;Left;0.801;5;lctrl;4;1;48;0.751;0.0;0.48;1;1.608;ex2;1
5;-1;0.0;-5;3.14;Right;0.802;5;rctrl;5;-1;48;0.752;0.0;0.512;3;1.605;ex2;1
5;-1;0.0;-5;2.377;Right;0.802;-5;rctrl;6;1;3;0.752;0.0;0.507;2;0.852;ex2;1
-5;-1;0.0;5;2.253;Left;0.802;5;lctrl;7;1;3;0.752;0.0;0.386;0;0.852;ex2;1
5;1;0.0;5;2.964;Right;0.803;-5;rctrl;8;-1;48;0.753;0.0;0.347;3;1.605;ex2;1
-5;-1;0.0;5;2.41;Left;0.802;5;lctrl;9;1;3;0.751;0.0;0.537;1;0.852;ex2;1
-5;1;0.0;-5;2.316;Left;0.806;5;lctrl;10;-1;3;0.756;0.0;0.441;0;0.856;ex2;1
-5;1;0.0;-5;2.27;Left;0.802;-5;lctrl;11;1;3;0.752;0.0;0.402;1;0.852;ex2;1
5;-1;0.0;-5;2.356;Right;0.802;-5;rctrl;12;1;3;0.751;0.0;0.477;0;0.852;ex2;1
-5;1;0.0;-5;3.113;Left;0.802;5;lctrl;13;-1;48;0.752;0.0;0.465;0;1.605;ex2;1
5;-1;0.0;-5;2.38;Right;0.801;5;rctrl;14;-1;3;0.751;0.0;0.507;2;0.851;ex2;1
5;1;0.0;5;3.02;Right;0.801;-5;rctrl;15;-1;48;0.751;0.0;0.401;2;1.602;ex2;1
-5;-1;0.0;5;2.37;Left;0.807;5;lctrl;16;1;3;0.757;0.0;0.486;2;0.857;ex2;1
-5;-1;0.0;5;2.318;Left;0.801;-5;lctrl;17;-1;3;0.751;0.0;0.451;1;0.851;ex2;1
-5;-1;0.0;5;3.055;Left;0.803;-5;lctrl;18;-1;48;0.753;0.0;0.435;0;1.604;ex2;1
5;-1;0.0;-5;2.309;Right;0.807;-5;rctrl;19;1;3;0.757;0.0;0.43;1;0.857;ex2;1
5;-1;0.0;-5;2.349;Right;0.801;-5;rctrl;20;1;3;0.751;0.0;0.473;3;0.851;ex2;1
-5;1;0.0;-5;3.079;Left;0.802;5;lctrl;21;-1;48;0.752;0.0;0.457;2;1.605;ex2;1
5;1;0.0;5;3.08;Right;0.802;5;rctrl;22;1;48;0.752;0.0;0.449;1;1.604;ex2;1
-5;1;0.0;-5;3.19;Left;0.801;5;lctrl;23;-1;48;0.751;0.0;0.558;1;1.608;ex2;1
5;1;0.0;5;2.552;Right;0.801;-5;rctrl;24;-1;3;0.751;0.0;0.685;2;0.852;ex2;1
-5;-1;0.0;5;2.37;Left;0.8;5;lctrl;25;1;3;0.75;0.0;0.502;3;0.85;ex2;1
5;1;0.0;5;2.419;Right;0.802;-5;rctrl;26;-1;3;0.751;0.0;0.532;1;0.852;ex2;1
5;1;0.0;5;2.302;Right;0.801;-5;rctrl;27;-1;3;0.751;0.0;0.426;3;0.851;ex2;1
5;1;0.0;5;3.02;Right;0.806;-5;rctrl;28;-1;48;0.756;0.0;0.385;0;1.608;ex2;1
-5;-1;0.0;5;3.144;Left;0.801;-5;lctrl;29;-1;48;0.751;0.0;0.522;3;1.604;ex2;1
5;-1;0.0;-5;3.11;Right;0.801;-5;rctrl;30;1;48;0.751;0.0;0.476;2;1.609;ex2;1
-5;1;0.0;-5;3.035;Left;0.8;5;lctrl;31;-1;48;0.75;0.0;0.422;3;1.602;ex2;1
5;1;0.0;5;2.322;Right;0.806;5;rctrl;32;1;3;0.756;0.0;0.442;0;0.856;ex2;1
-5;1;0.0;-5;2.988;Left;0.801;-5;lctrl;33;1;48;0.751;0.0;0.357;3;1.604;ex2;1
-5;-1;0.0;5;3.098;Left;0.801;5;lctrl;34;1;48;0.751;0.0;0.466;2;1.604;ex2;1
-5;-1;0.0;5;3.145;Left;0.802;5;lctrl;35;1;48;0.752;0.0;0.514;3;1.604;ex2;1
-5;1;0.0;-5;2.287;Left;0.801;5;lctrl;36;-1;3;0.751;0.0;0.419;3;0.852;ex2;1
-5;1;0.0;-5;3.057;Left;0.807;-5;lctrl;37;1;48;0.757;0.0;0.423;1;1.609;ex2;1
5;1;0.0;5;2.349;Right;0.851;5;rctrl;38;1;3;0.801;0.0;0.434;2;0.902;ex2;1
5;1;0.0;5;2.242;Right;0.801;5;rctrl;39;1;3;0.751;0.0;0.364;1;0.851;ex2;1
-5;-1;0.0;5;2.38;Left;0.801;-5;lctrl;40;-1;3;0.751;0.0;0.507;2;0.851;ex2;1
5;-1;0.0;-5;3.063;Right;0.802;-5;rctrl;41;1;48;0.752;0.0;0.443;3;1.605;ex2;1
5;1;0.0;5;3.096;Right;0.802;5;rctrl;42;1;48;0.752;0.0;0.468;3;1.604;ex2;1
5;-1;0.0;-5;3.174;Right;0.802;5;rctrl;43;-1;48;0.752;0.0;0.551;0;1.609;ex2;1
5;-1;0.0;-5;3.024;Right;0.801;-5;rctrl;44;1;48;0.751;0.0;0.404;1;1.603;ex2;1
5;1;0.0;5;3.278;Right;0.803;5;rctrl;45;1;48;0.752;0.0;0.661;2;1.605;ex2;1
5;1;0.0;5;2.314;Right;0.806;5;rctrl;46;1;3;0.751;0.0;0.442;3;0.856;ex2;1
-5;1;0.0;-5;2.41;Left;0.802;-5;lctrl;47;1;3;0.752;0.0;0.539;0;0.852;ex2;1
-5;1;0.0;-5;3.048;Left;0.8;-5;lctrl;48;1;48;0.751;0.0;0.425;2;1.603;ex2;1
-5;-1;0.0;5;3.129;Left;0.801;-5;lctrl;49;-1;48;0.751;0.0;0.507;1;1.602;ex2;1
-5;-1;0.0;5;3.253;Left;0.802;-5;lctrl;50;-1;48;0.752;0.0;0.628;2;1.608;ex2;1
5;-1;0.0;-5;3.129;Right;0.801;5;rctrl;51;-1;48;0.751;0.0;0.501;2;1.604;ex2;1
5;-1;0.0;-5;3.065;Right;0.802;-5;rctrl;52;1;48;0.752;0.0;0.445;0;1.603;ex2;1
5;-1;0.0;-5;3.066;Right;0.806;5;rctrl;53;-1;48;0.756;0.0;0.44;1;1.608;ex2;1
-5;1;0.0;-5;2.409;Left;0.802;5;lctrl;54;-1;3;0.752;0.0;0.538;2;0.852;ex2;1
5;-1;0.0;-5;3.438;Right;0.802;5;0;55;-1;3;0.752;0.0;563.919;3;0.852;ex2;0
-5;-1;0.0;5;2.403;Left;0.803;-5;lctrl;56;-1;3;0.752;0.0;0.537;3;0.853;ex2;1
5;1;0.0;5;2.355;Right;0.806;-5;rctrl;57;-1;3;0.756;0.0;0.474;0;0.856;ex2;1
-5;-1;0.0;5;2.333;Left;0.801;-5;lctrl;58;-1;3;0.751;0.0;0.461;0;0.851;ex2;1
-5;1;0.0;-5;2.283;Left;0.801;5;lctrl;59;-1;3;0.751;0.0;0.406;1;0.851;ex2;1
5;-1;0.0;-5;2.271;Right;0.801;5;lctrl;60;-1;3;0.751;0.0;0.372;0;0.851;ex2;0
-5;-1;0.0;5;3.112;Left;0.801;5;lctrl;61;1;48;0.751;0.0;0.484;0;1.604;ex2;1
5;1;0.0;5;3.111;Right;0.802;-5;rctrl;62;-1;48;0.752;0.0;0.492;1;1.603;ex2;1
5;1;0.0;5;3.174;Right;0.802;5;rctrl;63;1;48;0.752;0.0;0.543;0;1.608;ex2;1
-5;1;0.0;-5;3.16;Left;0.801;-5;lctrl;64;1;48;0.751;0.0;0.535;0;1.604;ex2;1
-5;-1;0.0;5;3.172;Left;0.807;-5;lctrl;1;-1;48;0.756;0.0;0.537;3;1.609;ex3;1
-5;-1;0.0;5;2.302;Left;0.802;-5;lctrl;2;-1;3;0.752;0.0;0.434;1;0.852;ex3;1
5;1;0.0;5;3.087;Right;0.807;5;rctrl;3;1;48;0.757;0.0;0.453;0;1.61;ex3;1
5;-1;0.0;-5;3.191;Right;0.803;-5;rctrl;4;1;48;0.753;0.0;0.572;3;1.605;ex3;1
5;1;0.0;5;2.357;Right;0.802;-5;rctrl;5;-1;3;0.752;0.0;0.48;0;0.852;ex3;1
-5;-1;0.0;5;3.144;Left;0.801;-5;lctrl;6;-1;48;0.751;0.0;0.516;1;1.604;ex3;1
-5;1;0.0;-5;3.063;Left;0.802;-5;lctrl;7;1;48;0.752;0.0;0.438;1;1.608;ex3;1
5;-1;0.0;-5;2.422;Right;0.802;-5;rctrl;8;1;3;0.752;0.0;0.542;3;0.852;ex3;1
5;1;0.0;5;2.283;Right;0.801;-5;rctrl;9;-1;3;0.752;0.0;0.407;1;0.852;ex3;1
5;1;0.0;5;3.051;Right;0.801;-5;rctrl;10;-1;48;0.751;0.0;0.421;3;1.604;ex3;1
5;1;0.0;5;2.331;Right;0.802;-5;rctrl;11;-1;3;0.752;0.0;0.449;2;0.852;ex3;1
5;-1;0.0;-5;2.942;Right;0.801;-5;lctrl;12;1;48;0.751;0.0;0.303;2;1.604;ex3;0
-5;1;0.0;-5;2.374;Left;0.803;5;lctrl;13;-1;3;0.752;0.0;0.509;3;0.853;ex3;1
5;1;0.0;5;2.297;Right;0.807;-5;rctrl;14;-1;3;0.757;0.0;0.423;3;0.857;ex3;1
-5;-1;0.0;5;3.11;Left;0.802;5;lctrl;15;1;48;0.752;0.0;0.48;2;1.604;ex3;1
5;1;0.0;5;3.098;Right;0.802;5;rctrl;16;1;48;0.753;0.0;0.474;1;1.605;ex3;1
5;1;0.0;5;2.301;Right;0.802;5;rctrl;17;1;3;0.752;0.0;0.426;2;0.852;ex3;1
5;1;0.0;5;2.987;Right;0.802;5;rctrl;18;1;48;0.752;0.0;0.381;3;1.604;ex3;1
-5;-1;0.0;5;2.339;Left;0.803;-5;lctrl;19;-1;3;0.753;0.0;0.472;0;0.853;ex3;1
-5;-1;0.0;5;2.357;Left;0.802;-5;lctrl;20;-1;3;0.752;0.0;0.48;2;0.852;ex3;1
-5;-1;0.0;5;3.113;Left;0.801;-5;lctrl;21;-1;48;0.751;0.0;0.494;0;1.602;ex3;1
-5;1;0.0;-5;3.113;Left;0.801;-5;lctrl;22;1;48;0.751;0.0;0.492;3;1.604;ex3;1
5;1;0.0;5;2.41;Right;0.806;5;rctrl;23;1;3;0.756;0.0;0.527;1;0.856;ex3;1
5;-1;0.0;-5;3.035;Right;0.806;-5;lctrl;24;1;48;0.756;0.0;0.381;0;1.608;ex3;0
-5;-1;0.0;5;2.332;Left;0.801;5;lctrl;25;1;3;0.751;0.0;0.463;1;0.851;ex3;1
-5;-1;0.0;5;2.287;Left;0.801;5;lctrl;26;1;3;0.751;0.0;0.408;3;0.856;ex3;1
5;1;0.0;5;2.38;Right;0.801;5;rctrl;27;1;3;0.751;0.0;0.512;3;0.851;ex3;1
-5;-1;0.0;5;3.285;Left;0.801;5;lctrl;28;1;48;0.751;0.0;0.668;0;1.604;ex3;1
-5;1;0.0;-5;2.352;Left;0.806;5;lctrl;29;-1;3;0.756;0.0;0.471;1;0.856;ex3;1
5;-1;0.0;-5;2.318;Right;0.801;-5;rctrl;30;1;3;0.751;0.0;0.446;0;0.851;ex3;1
5;-1;0.0;-5;2.333;Right;0.805;-5;rctrl;31;1;3;0.755;0.0;0.452;1;0.856;ex3;1
-5;-1;0.0;5;3.066;Left;0.801;5;lctrl;32;1;48;0.751;0.0;0.444;3;1.604;ex3;1
5;-1;0.0;-5;3.082;Right;0.801;5;rctrl;33;-1;48;0.751;0.0;0.459;3;1.604;ex3;1
5;-1;0.0;-5;3.048;Right;0.802;5;rctrl;34;-1;48;0.752;0.0;0.415;2;1.604;ex3;1
5;1;0.0;5;3.098;Right;0.801;-5;lctrl;35;-1;48;0.751;0.0;0.457;0;1.604;ex3;0
-5;1;0.0;-5;2.41;Left;0.801;-5;lctrl;36;1;3;0.751;0.0;0.544;3;0.852;ex3;1
-5;1;0.0;-5;3.029;Left;0.802;5;lctrl;37;-1;48;0.752;0.0;0.4;3;1.604;ex3;1
-5;1;0.0;-5;2.363;Left;0.802;-5;lctrl;38;1;3;0.752;0.0;0.483;2;0.852;ex3;1
5;-1;0.0;-5;2.505;Right;0.801;-5;rctrl;39;1;3;0.751;0.0;0.634;2;0.851;ex3;1
-5;1;0.0;-5;2.295;Left;0.802;-5;lctrl;40;1;3;0.752;0.0;0.418;1;0.852;ex3;1
-5;-1;0.0;5;3.035;Left;0.806;-5;rctrl;41;-1;48;0.756;0.0;0.384;2;1.607;ex3;0
5;1;0.0;5;3.143;Right;0.801;-5;rctrl;42;-1;48;0.751;0.0;0.531;2;1.603;ex3;1
-5;-1;0.0;5;3.188;Left;0.802;5;lctrl;43;1;48;0.752;0.0;0.56;1;1.604;ex3;1
-5;1;0.0;-5;3.098;Left;0.801;-5;lctrl;44;1;48;0.751;0.0;0.469;2;1.604;ex3;1
5;-1;0.0;-5;2.349;Right;0.801;5;rctrl;45;-1;3;0.751;0.0;0.486;3;0.851;ex3;1
-5;1;0.0;-5;2.336;Left;0.801;-5;lctrl;46;1;3;0.751;0.0;0.469;0;0.851;ex3;1
-5;-1;0.0;5;2.372;Left;0.807;-5;lctrl;47;-1;3;0.757;0.0;0.489;3;0.857;ex3;1
-5;1;0.0;-5;3.472;Left;0.801;-5;lctrl;48;1;48;0.751;0.0;0.852;0;1.602;ex3;1
-5;1;0.0;-5;3.059;Left;0.803;5;lctrl;49;-1;48;0.752;0.0;0.423;1;1.609;ex3;1
5;1;0.0;5;2.318;Right;0.801;5;rctrl;50;1;3;0.751;0.0;0.443;0;0.851;ex3;1
5;-1;0.0;-5;2.55;Right;0.802;5;rctrl;51;-1;3;0.752;0.0;0.677;0;0.852;ex3;1
-5;1;0.0;-5;2.411;Left;0.801;5;lctrl;52;-1;3;0.751;0.0;0.536;2;0.851;ex3;1
-5;1;0.0;-5;3.112;Left;0.801;5;lctrl;53;-1;48;0.751;0.0;0.487;2;1.601;ex3;1
5;-1;0.0;-5;2.38;Right;0.807;5;rctrl;54;-1;3;0.757;0.0;0.504;2;0.857;ex3;1
-5;1;0.0;-5;2.532;Left;0.801;5;lctrl;55;-1;3;0.751;0.0;0.663;0;0.852;ex3;1
-5;1;0.0;-5;3.144;Left;0.801;5;lctrl;56;-1;48;0.751;0.0;0.516;0;1.604;ex3;1
5;1;0.0;5;3.001;Right;0.807;-5;rctrl;57;-1;48;0.756;0.0;0.365;1;1.609;ex3;1
5;-1;0.0;-5;3.128;Right;0.802;-5;rctrl;58;1;48;0.752;0.0;0.505;1;1.604;ex3;1
5;-1;0.0;-5;2.845;Right;0.801;5;rctrl;59;-1;3;0.752;0.0;0.975;1;0.852;ex3;1
5;-1;0.0;-5;3.066;Right;0.806;5;rctrl;60;-1;48;0.756;0.0;0.415;0;1.608;ex3;1
5;-1;0.0;-5;2.973;Right;0.801;5;rctrl;61;-1;48;0.751;0.0;0.354;1;1.604;ex3;1
-5;-1;0.0;5;2.279;Left;0.803;5;lctrl;62;1;3;0.752;0.0;0.406;2;0.853;ex3;1
-5;-1;0.0;5;2.348;Left;0.801;5;lctrl;63;1;3;0.751;0.0;0.466;0;0.851;ex3;1
5;1;0.0;5;3.129;Right;0.806;5;rctrl;64;1;48;0.756;0.0;0.505;2;1.608;ex3;1
5;1;0.0;5;2.972;Right;0.801;-5;rctrl;1;-1;48;0.751;0.0;0.352;0;1.604;ex4;1
-5;-1;0.0;5;3.089;Left;0.803;5;lctrl;2;1;48;0.753;0.0;0.456;1;1.609;ex4;1
5;-1;0.0;-5;2.286;Right;0.802;-5;rctrl;3;1;3;0.752;0.0;0.42;3;0.852;ex4;1
-5;1;0.0;-5;2.261;Left;0.803;5;lctrl;4;-1;3;0.753;0.0;0.389;3;0.853;ex4;1
5;-1;0.0;-5;3.143;Right;0.802;-5;rctrl;5;1;48;0.752;0.0;0.507;1;1.609;ex4;1
5;-1;0.0;-5;2.318;Right;0.801;5;rctrl;6;-1;3;0.751;0.0;0.443;3;0.851;ex4;1
-5;1;0.0;-5;2.599;Left;0.801;-5;lctrl;7;1;3;0.751;0.0;0.727;0;0.851;ex4;1
-5;-1;0.0;5;2.349;Left;0.801;-5;lctrl;8;-1;3;0.751;0.0;0.466;3;0.851;ex4;1
5;-1;0.0;-5;2.333;Right;0.806;5;rctrl;9;-1;3;0.756;0.0;0.449;1;0.856;ex4;1
-5;1;0.0;-5;3.051;Left;0.801;5;lctrl;10;-1;48;0.751;0.0;0.427;3;1.603;ex4;1
-5;1;0.0;-5;2.302;Left;0.801;-5;lctrl;11;1;3;0.751;0.0;0.448;3;0.852;ex4;1
-5;1;0.0;-5;4.195;Left;0.806;-5;0;12;1;48;0.756;0.0;802.887;3;1.608;ex4;0
-5;-1;0.0;5;3.138;Left;0.803;-5;lctrl;13;-1;48;0.752;0.0;0.511;3;1.605;ex4;1
-5;1;0.0;-5;2.377;Left;0.802;5;lctrl;14;-1;3;0.752;0.0;0.5;2;0.853;ex4;1
5;-1;0.0;-5;2.394;Right;0.802;-5;rctrl;15;1;3;0.752;0.0;0.523;1;0.852;ex4;1
5;-1;0.0;-5;2.394;Right;0.802;5;rctrl;16;-1;3;0.752;0.0;0.529;2;0.852;ex4;1
-5;1;0.0;-5;2.347;Left;0.802;-5;lctrl;17;1;3;0.752;0.0;0.471;2;0.852;ex4;1
-5;1;0.0;-5;3.066;Left;0.805;5;lctrl;18;-1;48;0.755;0.0;0.433;0;1.607;ex4;1
5;-1;0.0;-5;3.144;Right;0.801;5;rctrl;19;-1;48;0.751;0.0;0.516;0;1.603;ex4;1
5;1;0.0;5;2.3;Right;0.801;-5;rctrl;20;-1;3;0.751;0.0;0.434;2;0.851;ex4;1
-5;1;0.0;-5;2.274;Left;0.801;5;lctrl;21;-1;3;0.751;0.0;0.395;1;0.851;ex4;1
-5;-1;0.0;5;2.318;Left;0.801;-5;rctrl;22;-1;3;0.751;0.0;0.419;1;0.851;ex4;0
5;1;0.0;5;3.436;Right;0.802;5;0;23;1;3;0.752;0.0;832.186;0;0.853;ex4;0
-5;-1;0.0;5;3.056;Left;0.803;5;lctrl;24;1;48;0.753;0.0;0.427;3;1.605;ex4;1
-5;-1;0.0;5;2.287;Left;0.803;5;lctrl;25;1;3;0.753;0.0;0.42;2;0.853;ex4;1
5;1;0.0;5;3.088;Right;0.803;5;rctrl;26;1;48;0.753;0.0;0.469;1;1.605;ex4;1
5;-1;0.0;-5;3.258;Right;0.803;-5;rctrl;27;1;48;0.753;0.0;0.623;0;1.609;ex4;1
-5;1;0.0;-5;2.676;Left;0.801;-5;lctrl;28;1;3;0.751;0.0;0.812;1;0.851;ex4;1
5;1;0.0;5;3.08;Right;0.802;-5;rctrl;29;-1;48;0.752;0.0;0.464;1;1.609;ex4;1
5;-1;0.0;-5;2.28;Right;0.802;5;rctrl;30;-1;3;0.751;0.0;0.409;0;0.852;ex4;1
5;1;0.0;5;2.302;Right;0.801;5;rctrl;31;1;3;0.751;0.0;0.426;3;0.851;ex4;1
-5;-1;0.0;5;2.206;Left;0.802;5;rctrl;32;1;3;0.752;0.0;0.314;1;0.853;ex4;0
-5;1;0.0;-5;2.966;Left;0.802;5;lctrl;33;-1;48;0.751;0.0;0.343;2;1.604;ex4;1
-5;-1;0.0;5;3.129;Left;0.802;5;lctrl;34;1;48;0.752;0.0;0.494;2;1.609;ex4;1
5;1;0.0;5;2.52;Right;0.805;5;rctrl;35;1;3;0.755;0.0;0.638;2;0.856;ex4;1
5;-1;0.0;-5;3.082;Right;0.801;5;rctrl;36;-1;48;0.751;0.0;0.459;1;1.604;ex4;1
-5;1;0.0;-5;3.051;Left;0.806;-5;lctrl;37;1;48;0.756;0.0;0.43;1;1.608;ex4;1
-5;1;0.0;-5;2.988;Left;0.801;-5;lctrl;38;1;48;0.751;0.0;0.369;0;1.603;ex4;1
5;-1;0.0;-5;2.371;Right;0.803;-5;rctrl;39;1;3;0.753;0.0;0.5;2;0.853;ex4;1
5;1;0.0;5;2.294;Right;0.801;-5;rctrl;40;-1;3;0.751;0.0;0.427;1;0.851;ex4;1
-5;-1;0.0;5;2.644;Left;0.802;-5;lctrl;41;-1;3;0.752;0.0;0.76;0;0.857;ex4;1
-5;-1;0.0;5;3.066;Left;0.805;-5;lctrl;42;-1;48;0.755;0.0;0.446;2;1.608;ex4;1
5;1;0.0;5;3.096;Right;0.801;5;rctrl;43;1;48;0.751;0.0;0.471;0;1.604;ex4;1
-5;1;0.0;-5;3.065;Left;0.801;-5;lctrl;44;1;48;0.751;0.0;0.438;2;1.604;ex4;1
5;1;0.0;5;2.988;Right;0.806;-5;rctrl;45;-1;48;0.756;0.0;0.349;3;1.606;ex4;1
-5;1;0.0;-5;2.396;Left;0.801;5;lctrl;46;-1;3;0.751;0.0;0.516;0;0.851;ex4;1
5;-1;0.0;-5;3.082;Right;0.802;5;rctrl;47;-1;48;0.752;0.0;0.461;3;1.609;ex4;1
5;1;0.0;5;3.266;Right;0.802;5;rctrl;48;1;48;0.752;0.0;0.638;2;1.603;ex4;1
5;1;0.0;5;2.318;Right;0.801;-5;rctrl;49;-1;3;0.751;0.0;0.445;0;0.851;ex4;1
5;1;0.0;5;2.676;Right;0.802;-5;rctrl;50;-1;3;0.752;0.0;0.808;3;0.853;ex4;1
-5;-1;0.0;5;3.157;Left;0.801;-5;lctrl;51;-1;48;0.751;0.0;0.53;1;1.604;ex4;1
-5;-1;0.0;5;3.082;Left;0.802;5;lctrl;52;1;48;0.752;0.0;0.462;0;1.604;ex4;1
-5;-1;0.0;5;2.286;Left;0.801;-5;lctrl;53;-1;3;0.751;0.0;0.414;2;0.851;ex4;1
5;-1;0.0;-5;3.189;Right;0.801;-5;rctrl;54;1;48;0.751;0.0;0.558;2;1.604;ex4;1
5;-1;0.0;-5;3.316;Right;0.806;5;rctrl;55;-1;48;0.756;0.0;0.686;2;1.608;ex4;1
5;-1;0.0;-5;2.425;Right;0.802;-5;rctrl;56;1;3;0.752;0.0;0.556;0;0.853;ex4;1
5;1;0.0;5;2.983;Right;0.802;5;rctrl;57;1;48;0.752;0.0;0.362;3;1.603;ex4;1
-5;-1;0.0;5;2.3;Left;0.802;5;lctrl;58;1;3;0.752;0.0;0.423;3;0.853;ex4;1
-5;-1;0.0;5;2.365;Left;0.801;5;rctrl;59;1;3;0.751;0.0;0.471;0;0.851;ex4;0
5;1;0.0;5;2.363;Right;0.806;5;rctrl;60;1;3;0.756;0.0;0.485;1;0.856;ex4;1
-5;1;0.0;-5;3.11;Left;0.801;5;lctrl;61;-1;48;0.751;0.0;0.485;1;1.603;ex4;1
5;-1;0.0;-5;3.11;Right;0.802;-5;rctrl;62;1;48;0.752;0.0;0.493;3;1.603;ex4;1
-5;-1;0.0;5;3.032;Left;0.802;-5;lctrl;63;-1;48;0.752;0.0;0.408;0;1.608;ex4;1
5;1;0.0;5;3.064;Right;0.802;-5;rctrl;64;-1;48;0.752;0.0;0.443;2;1.604;ex4;1
-5;-1;0.0;5;2.956;Left;0.802;5;lctrl;1;1;3;0.752;0.0;1.083;0;0.852;ex5;1
-5;1;0.0;-5;2.983;Left;0.807;-5;lctrl;2;1;48;0.757;0.0;0.365;3;1.609;ex5;1
5;1;0.0;5;2.174;Right;0.802;5;rctrl;3;1;3;0.752;0.0;0.304;2;0.853;ex5;1
5;-1;0.0;-5;3.029;Right;0.803;5;rctrl;4;-1;48;0.752;0.0;0.406;3;1.605;ex5;1
-5;-1;0.0;5;3.018;Left;0.807;-5;lctrl;5;-1;48;0.756;0.0;0.388;0;1.608;ex5;1
5;1;0.0;5;3.004;Right;0.802;5;rctrl;6;1;48;0.752;0.0;0.375;2;1.605;ex5;1
5;-1;0.0;-5;2.302;Right;0.804;5;rctrl;7;-1;3;0.754;0.0;0.426;0;0.855;ex5;1
5;-1;0.0;-5;2.224;Right;0.801;5;rctrl;8;-1;3;0.751;0.0;0.361;1;0.852;ex5;1
5;-1;0.0;-5;3.015;Right;0.802;5;rctrl;9;-1;48;0.752;0.0;0.388;2;1.605;ex5;1
5;-1;0.0;-5;2.209;Right;0.806;-5;rctrl;10;1;3;0.756;0.0;0.33;1;0.856;ex5;1
-5;-1;0.0;5;2.427;Left;0.806;5;lctrl;11;1;3;0.756;0.0;0.555;3;0.856;ex5;1
-5;-1;0.0;5;2.312;Left;0.803;-5;lctrl;12;-1;3;0.752;0.0;0.447;0;0.852;ex5;1
5;1;0.0;5;3.05;Right;0.802;-5;rctrl;13;-1;48;0.752;0.0;0.424;0;1.604;ex5;1
-5;1;0.0;-5;2.318;Left;0.801;5;lctrl;14;-1;3;0.751;0.0;0.441;3;0.851;ex5;1
5;1;0.0;5;2.302;Right;0.802;-5;rctrl;15;-1;3;0.752;0.0;0.435;0;0.853;ex5;1
5;1;0.0;5;3.04;Right;0.803;-5;rctrl;16;-1;48;0.753;0.0;0.411;3;1.605;ex5;1
5;1;0.0;5;3.207;Right;0.801;-5;rctrl;17;-1;48;0.751;0.0;0.599;2;1.602;ex5;1
-5;-1;0.0;5;2.343;Left;0.802;5;lctrl;18;1;3;0.752;0.0;0.449;1;0.852;ex5;1
-5;1;0.0;-5;2.13;Left;0.801;-5;lctrl;19;1;3;0.751;0.0;0.252;1;0.851;ex5;1
-5;-1;0.0;5;2.318;Left;0.801;-5;lctrl;20;-1;3;0.751;0.0;0.451;3;0.851;ex5;1
5;-1;0.0;-5;3.321;Right;0.802;-5;rctrl;21;1;48;0.752;0.0;0.686;0;1.609;ex5;1
5;-1;0.0;-5;3.129;Right;0.801;-5;rctrl;22;1;48;0.751;0.0;0.51;3;1.601;ex5;1
-5;-1;0.0;5;2.442;Left;0.801;-5;lctrl;23;-1;3;0.751;0.0;0.573;2;0.851;ex5;1
-5;1;0.0;-5;2.393;Left;0.801;5;lctrl;24;-1;3;0.751;0.0;0.529;1;0.851;ex5;1
-5;1;0.0;-5;2.784;Left;0.802;-5;lctrl;25;1;3;0.752;0.0;0.919;2;0.852;ex5;1
-5;-1;0.0;5;3.069;Left;0.804;5;lctrl;26;1;48;0.754;0.0;0.44;2;1.607;ex5;1
-5;-1;0.0;5;2.349;Left;0.801;5;lctrl;27;1;3;0.751;0.0;0.48;2;0.851;ex5;1
5;-1;0.0;-5;4.19;Right;0.806;-5;0;28;1;48;0.756;0.0;1056.011;1;1.609;ex5;0
-5;1;0.0;-5;2.351;Left;0.802;-5;lctrl;29;1;3;0.752;0.0;0.474;3;0.852;ex5;1
-5;1;0.0;-5;2.973;Left;0.805;-5;lctrl;30;1;48;0.756;0.0;0.353;2;1.607;ex5;1
5;-1;0.0;-5;2.931;Right;0.803;-5;rctrl;31;1;3;0.753;0.0;1.053;3;0.853;ex5;1
5;-1;0.0;-5;2.24;Right;0.801;-5;rctrl;32;1;3;0.751;0.0;0.364;0;0.852;ex5;1
5;1;0.0;5;3.706;Right;0.801;5;rctrl;33;1;48;0.751;0.0;1.079;0;1.603;ex5;1
-5;1;0.0;-5;3.02;Left;0.802;5;lctrl;34;-1;48;0.752;0.0;0.396;0;1.605;ex5;1
5;1;0.0;5;2.302;Right;0.801;5;rctrl;35;1;3;0.751;0.0;0.427;3;0.851;ex5;1
-5;1;0.0;-5;3.098;Left;0.801;5;lctrl;36;-1;48;0.751;0.0;0.477;1;1.604;ex5;1
-5;1;0.0;-5;2.286;Left;0.801;-5;lctrl;37;1;3;0.751;0.0;0.414;0;0.851;ex5;1
5;-1;0.0;-5;2.989;Right;0.802;-5;lctrl;38;1;48;0.752;0.0;0.36;2;1.604;ex5;0
-5;1;0.0;-5;2.246;Left;0.803;5;lctrl;39;-1;3;0.753;0.0;0.371;0;0.853;ex5;1
-5;-1;0.0;5;3.269;Left;0.801;-5;lctrl;40;-1;48;0.751;0.0;0.646;2;1.604;ex5;1
5;1;0.0;5;3.067;Right;0.802;-5;rctrl;41;-1;48;0.752;0.0;0.452;1;1.603;ex5;1
5;-1;0.0;-5;3.147;Right;0.801;5;rctrl;42;-1;48;0.751;0.0;0.517;0;1.603;ex5;1
-5;1;0.0;-5;3.16;Left;0.801;5;lctrl;43;-1;48;0.751;0.0;0.53;3;1.604;ex5;1
5;1;0.0;5;3.441;Right;0.801;-5;0;44;-1;3;0.751;0.0;1102.365;3;0.851;ex5;0
5;1;0.0;5;2.375;Right;0.802;-5;rctrl;45;-1;3;0.752;0.0;0.51;1;0.853;ex5;1
5;1;0.0;5;3.874;Right;0.806;5;rctrl;46;1;48;0.756;0.0;1.24;3;1.608;ex5;1
-5;-1;0.0;5;3.082;Left;0.801;-5;lctrl;47;-1;48;0.751;0.0;0.456;1;1.608;ex5;1
5;-1;0.0;-5;3.438;Right;0.802;5;0;48;-1;3;0.752;0.0;1115.175;2;0.852;ex5;0
5;-1;0.0;-5;2.264;Right;0.802;-5;rctrl;49;1;3;0.752;0.0;0.396;2;0.852;ex5;1
-5;-1;0.0;5;3.066;Left;0.801;5;lctrl;50;1;48;0.751;0.0;0.446;3;1.604;ex5;1
-5;-1;0.0;5;3.176;Left;0.804;5;lctrl;51;1;48;0.754;0.0;0.555;1;1.606;ex5;1
-5;-1;0.0;5;3.122;Left;0.802;5;lctrl;52;1;48;0.752;0.0;0.503;0;1.604;ex5;1
5;1;0.0;5;2.402;Right;0.802;-5;rctrl;53;-1;3;0.752;0.0;0.525;2;0.852;ex5;1
5;1;0.0;5;3.316;Right;0.803;5;rctrl;54;1;48;0.753;0.0;0.686;1;1.603;ex5;1
5;1;0.0;5;2.645;Right;0.801;5;rctrl;55;1;3;0.751;0.0;0.779;1;0.851;ex5;1
-5;1;0.0;-5;3.066;Left;0.801;5;lctrl;56;-1;48;0.751;0.0;0.446;2;1.604;ex5;1
-5;1;0.0;-5;3.11;Left;0.801;-5;lctrl;57;1;48;0.751;0.0;0.466;1;1.604;ex5;1
-5;1;0.0;-5;2.302;Left;0.801;5;lctrl;58;-1;3;0.751;0.0;0.429;2;0.851;ex5;1
5;-1;0.0;-5;2.52;Right;0.801;5;rctrl;59;-1;3;0.751;0.0;0.649;3;0.851;ex5;1
5;-1;0.0;-5;3.324;Right;0.806;5;rctrl;60;-1;48;0.756;0.0;0.701;1;1.608;ex5;1
-5;1;0.0;-5;3.679;Left;0.801;-5;lctrl;61;1;48;0.751;0.0;1.052;0;1.603;ex5;1
5;1;0.0;5;2.535;Right;0.802;5;rctrl;62;1;3;0.752;0.0;0.661;0;0.852;ex5;1
-5;-1;0.0;5;2.331;Left;0.802;-5;lctrl;63;-1;3;0.752;0.0;0.453;1;0.852;ex5;1
-5;-1;0.0;5;3.176;Left;0.801;-5;lctrl;64;-1;48;0.751;0.0;0.546;3;1.604;ex5;1
-5;1;0.0;-5;2.245;Left;0.803;5;lctrl;1;-1;3;0.753;0.0;0.376;1;0.853;ex6;1
-5;1;0.0;-5;3.014;Left;0.801;-5;lctrl;2;1;48;0.751;0.0;0.384;1;1.603;ex6;1
-5;-1;0.0;5;3.035;Left;0.801;-5;rctrl;3;-1;48;0.751;0.0;0.394;0;1.604;ex6;0
5;-1;0.0;-5;3.116;Right;0.802;-5;rctrl;4;1;48;0.752;0.0;0.495;3;1.608;ex6;1
-5;1;0.0;-5;2.3;Left;0.801;5;lctrl;5;-1;3;0.752;0.0;0.423;0;0.852;ex6;1
-5;1;0.0;-5;3.004;Left;0.801;5;lctrl;6;-1;48;0.751;0.0;0.389;3;1.602;ex6;1
-5;-1;0.0;5;3.104;Left;0.806;5;lctrl;7;1;48;0.756;0.0;0.484;0;1.608;ex6;1
-5;1;0.0;-5;3.443;Left;0.801;-5;0;8;1;3;0.751;0.0;1213.056;2;0.851;ex6;0
-5;1;0.0;-5;3.003;Left;0.801;-5;lctrl;9;1;48;0.751;0.0;0.376;0;1.604;ex6;1
-5;1;0.0;-5;2.939;Left;0.802;-5;lctrl;10;1;48;0.752;0.0;0.331;2;1.604;ex6;1
-5;-1;0.0;5;3.011;Left;0.803;5;lctrl;11;1;48;0.753;0.0;0.384;1;1.605;ex6;1
-5;-1;0.0;5;2.454;Left;0.802;5;lctrl;12;1;3;0.752;0.0;0.579;0;0.852;ex6;1
5;-1;0.0;-5;3.113;Right;0.801;5;rctrl;13;-1;48;0.751;0.0;0.494;0;1.604;ex6;1
5;1;0.0;5;2.41;Right;0.801;5;rctrl;14;1;3;0.751;0.0;0.542;3;0.852;ex6;1
5;1;0.0;5;2.581;Right;0.802;-5;rctrl;15;-1;3;0.752;0.0;0.71;2;0.857;ex6;1
5;1;0.0;5;3.111;Right;0.802;-5;rctrl;16;-1;48;0.752;0.0;0.484;3;1.605;ex6;1
5;1;0.0;5;3.062;Right;0.802;5;rctrl;17;1;48;0.752;0.0;0.442;1;1.604;ex6;1
5;1;0.0;5;3.033;Right;0.802;-5;rctrl;18;-1;48;0.752;0.0;0.407;1;1.609;ex6;1
5;-1;0.0;-5;2.987;Right;0.801;5;rctrl;19;-1;48;0.751;0.0;0.363;3;1.603;ex6;1
5;-1;0.0;-5;2.302;Right;0.806;-5;rctrl;20;1;3;0.756;0.0;0.428;1;0.856;ex6;1
-5;1;0.0;-5;3.441;Left;0.8;5;lctrl;21;-1;48;0.75;0.0;0.813;2;1.602;ex6;1
5;1;0.0;5;3.035;Right;0.801;5;rctrl;22;1;48;0.751;0.0;0.412;0;1.604;ex6;1
5;1;0.0;5;3.16;Right;0.801;-5;lctrl;23;-1;48;0.751;0.0;0.494;0;1.608;ex6;0
-5;1;0.0;-5;3.081;Left;0.805;-5;lctrl;24;1;48;0.755;0.0;0.455;3;1.607;ex6;1
5;1;0.0;5;3.157;Right;0.8;-5;rctrl;25;-1;48;0.75;0.0;0.536;2;1.603;ex6;1
5;-1;0.0;-5;2.452;Right;0.8;-5;rctrl;26;1;3;0.75;0.0;0.598;3;0.851;ex6;1
5;1;0.0;5;3.431;Right;0.802;5;0;27;1;3;0.752;0.0;1269.009;1;0.852;ex6;0
-5;-1;0.0;5;3.444;Left;0.802;5;0;28;1;3;0.752;0.0;1272.445;3;0.852;ex6;0
5;1;0.0;5;2.331;Right;0.807;-5;rctrl;29;-1;3;0.756;0.0;0.461;1;0.857;ex6;1
5;1;0.0;5;2.924;Right;0.802;5;rctrl;30;1;48;0.752;0.0;0.301;2;1.604;ex6;1
-5;-1;0.0;5;3.091;Left;0.803;-5;lctrl;31;-1;48;0.752;0.0;0.467;1;1.605;ex6;1
-5;-1;0.0;5;2.311;Left;0.806;-5;lctrl;32;-1;3;0.757;0.0;0.414;3;0.856;ex6;1
5;-1;0.0;-5;2.193;Right;0.806;5;lctrl;33;-1;3;0.756;0.0;0.297;2;0.856;ex6;0
5;-1;0.0;-5;2.233;Right;0.803;-5;rctrl;34;1;3;0.752;0.0;0.366;2;0.853;ex6;1
-5;1;0.0;-5;3.069;Left;0.801;5;lctrl;35;-1;48;0.751;0.0;0.444;1;1.602;ex6;1
5;1;0.0;5;2.268;Right;0.801;5;rctrl;36;1;3;0.751;0.0;0.395;0;0.852;ex6;1
-5;1;0.0;-5;2.255;Left;0.801;-5;lctrl;37;1;3;0.751;0.0;0.385;0;0.851;ex6;1
-5;-1;0.0;5;2.311;Left;0.807;5;lctrl;38;1;3;0.757;0.0;0.439;2;0.857;ex6;1
5;-1;0.0;-5;3.232;Right;0.803;5;rctrl;39;-1;48;0.752;0.0;0.6;1;1.605;ex6;1
-5;1;0.0;-5;2.428;Left;0.802;-5;lctrl;40;1;3;0.752;0.0;0.562;3;0.852;ex6;1
5;1;0.0;5;3.158;Right;0.801;5;rctrl;41;1;48;0.751;0.0;0.544;3;1.602;ex6;1
5;1;0.0;5;2.563;Right;0.807;-5;rctrl;42;-1;3;0.757;0.0;0.687;3;0.857;ex6;1
-5;1;0.0;-5;2.251;Left;0.801;-5;lctrl;43;1;3;0.751;0.0;0.383;1;0.852;ex6;1
5;1;0.0;5;2.26;Right;0.803;5;rctrl;44;1;3;0.753;0.0;0.393;2;0.853;ex6;1
5;1;0.0;5;2.315;Right;0.802;-5;rctrl;45;-1;3;0.752;0.0;0.436;0;0.852;ex6;1
-5;1;0.0;-5;2.349;Left;0.806;5;lctrl;46;-1;3;0.756;0.0;0.471;3;0.856;ex6;1
5;-1;0.0;-5;3.44;Right;0.802;5;0;47;-1;3;0.752;0.0;1321.618;0;0.852;ex6;0
5;-1;0.0;-5;3.186;Right;0.803;-5;rctrl;48;1;48;0.752;0.0;0.561;0;1.605;ex6;1
-5;-1;0.0;5;4.19;Left;0.806;-5;0;49;-1;48;0.756;0.0;1329.019;2;1.608;ex6;0
-5;-1;0.0;5;2.305;Left;0.802;5;lctrl;50;1;3;0.752;0.0;0.44;1;0.852;ex6;1
-5;1;0.0;-5;2.31;Left;0.802;5;lctrl;51;-1;3;0.752;0.0;0.441;2;0.852;ex6;1
-5;-1;0.0;5;2.425;Left;0.802;-5;lctrl;52;-1;3;0.752;0.0;0.555;0;0.852;ex6;1
-5;1;0.0;-5;3.016;Left;0.807;5;lctrl;53;-1;48;0.756;0.0;0.394;0;1.609;ex6;1
5;-1;0.0;-5;2.393;Right;0.802;5;rctrl;54;-1;3;0.752;0.0;0.525;1;0.852;ex6;1
5;-1;0.0;-5;3.11;Right;0.802;-5;rctrl;55;1;48;0.751;0.0;0.483;2;1.604;ex6;1
5;-1;0.0;-5;2.345;Right;0.806;-5;rctrl;56;1;3;0.756;0.0;0.461;0;0.856;ex6;1
-5;-1;0.0;5;2.349;Left;0.806;-5;lctrl;57;-1;3;0.755;0.0;0.47;2;0.856;ex6;1
-5;-1;0.0;5;2.332;Left;0.801;-5;lctrl;58;-1;3;0.751;0.0;0.455;1;0.851;ex6;1
-5;-1;0.0;5;3.16;Left;0.801;5;lctrl;59;1;48;0.751;0.0;0.548;2;1.602;ex6;1
-5;-1;0.0;5;3.064;Left;0.806;5;lctrl;60;1;48;0.756;0.0;0.436;3;1.609;ex6;1
5;-1;0.0;-5;3.342;Right;0.802;5;rctrl;61;-1;48;0.752;0.0;0.718;2;1.603;ex6;1
5;-1;0.0;-5;2.75;Right;0.801;5;rctrl;62;-1;3;0.751;0.0;0.885;3;0.851;ex6;1
-5;-1;0.0;5;3.321;Left;0.803;-5;lctrl;63;-1;48;0.753;0.0;0.687;3;1.61;ex6;1
5;-1;0.0;-5;3.316;Right;0.8;-5;rctrl;64;1;48;0.75;0.0;0.694;1;1.602;ex6;1
-5;1;0.0;-5;2.239;Left;0.801;5;lctrl;1;-1;3;0.751;0.0;0.363;3;0.851;ex7;1
-5;1;0.0;-5;2.989;Left;0.802;5;lctrl;2;-1;48;0.752;0.0;0.349;0;1.603;ex7;1
5;-1;0.0;-5;3.066;Right;0.806;5;rctrl;3;-1;48;0.756;0.0;0.437;1;1.608;ex7;1
-5;1;0.0;-5;2.331;Left;0.801;5;lctrl;4;-1;3;0.752;0.0;0.454;2;0.851;ex7;1
-5;-1;0.0;5;2.723;Left;0.801;5;lctrl;5;1;3;0.751;0.0;0.852;3;0.851;ex7;1
-5;1;0.0;-5;3.108;Left;0.801;-5;lctrl;6;1;48;0.751;0.0;0.48;2;1.608;ex7;1
-5;1;0.0;-5;3.144;Left;0.8;5;lctrl;7;-1;48;0.75;0.0;0.499;3;1.602;ex7;1
5;1;0.0;5;3.441;Right;0.801;5;0;8;1;3;0.751;0.0;1396.323;1;0.851;ex7;0
5;1;0.0;5;2.407;Right;0.807;5;rctrl;9;1;3;0.757;0.0;0.537;3;0.857;ex7;1
-5;1;0.0;-5;3.446;Left;0.802;5;0;10;-1;3;0.752;0.0;1402.199;0;0.852;ex7;0
-5;-1;0.0;5;3.254;Left;0.801;-5;lctrl;11;-1;3;0.751;0.0;1.378;0;0.851;ex7;1
5;1;0.0;5;3.034;Right;0.801;5;rctrl;12;1;48;0.751;0.0;0.412;0;1.603;ex7;1
5;-1;0.0;-5;3.082;Right;0.801;-5;rctrl;13;1;48;0.751;0.0;0.451;2;1.604;ex7;1
-5;-1;0.0;5;2.318;Left;0.806;-5;lctrl;14;-1;3;0.756;0.0;0.446;2;0.856;ex7;1
-5;1;0.0;-5;2.333;Left;0.801;-5;lctrl;15;1;3;0.751;0.0;0.462;1;0.851;ex7;1
-5;1;0.0;-5;2.333;Left;0.801;-5;lctrl;16;1;3;0.751;0.0;0.453;0;0.857;ex7;1
5;1;0.0;5;3.051;Right;0.801;-5;rctrl;17;-1;48;0.751;0.0;0.422;3;1.604;ex7;1
-5;1;0.0;-5;4.049;Left;0.801;-5;lctrl;18;1;48;0.751;0.0;1.42;0;1.604;ex7;1
5;-1;0.0;-5;2.393;Right;0.802;-5;rctrl;19;1;3;0.751;0.0;0.521;0;0.853;ex7;1
5;-1;0.0;-5;2.939;Right;0.8;5;rctrl;20;-1;48;0.751;0.0;0.319;0;1.603;ex7;1
5;1;0.0;5;2.715;Right;0.802;5;rctrl;21;1;3;0.752;0.0;0.837;0;0.852;ex7;1
-5;-1;0.0;5;3.441;Left;0.805;-5;0;22;-1;3;0.755;0.0;1437.244;3;0.855;ex7;0
-5;-1;0.0;5;2.451;Left;0.802;-5;lctrl;23;-1;3;0.751;0.0;0.572;1;0.852;ex7;1
-5;-1;0.0;5;3.441;Left;0.801;5;0;24;1;3;0.751;0.0;1443.153;1;0.851;ex7;0
5;-1;0.0;-5;2.282;Right;0.807;-5;rctrl;25;1;3;0.752;0.0;0.401;3;0.857;ex7;1
5;-1;0.0;-5;2.253;Right;0.802;5;rctrl;26;-1;3;0.751;0.0;0.388;3;0.852;ex7;1
5;1;0.0;5;3.666;Right;0.803;5;rctrl;27;1;48;0.753;0.0;1.046;2;1.605;ex7;1
5;-1;0.0;-5;3.113;Right;0.801;-5;rctrl;28;1;48;0.751;0.0;0.482;3;1.608;ex7;1
-5;-1;0.0;5;4.122;Left;0.802;-5;lctrl;29;-1;48;0.752;0.0;1.497;3;1.604;ex7;1
5;-1;0.0;-5;3.144;Right;0.805;5;rctrl;30;-1;48;0.756;0.0;0.516;3;1.608;ex7;1
-5;-1;0.0;5;2.919;Left;0.802;5;lctrl;31;1;3;0.752;0.0;1.049;2;0.852;ex7;1
5;1;0.0;5;3.446;Right;0.803;-5;0;32;-1;3;0.753;0.0;1468.186;1;0.853;ex7;0
5;-1;0.0;-5;2.879;Right;0.801;5;rctrl;33;-1;3;0.751;0.0;1.013;0;0.851;ex7;1
-5;-1;0.0;5;3.051;Left;0.805;5;lctrl;34;1;48;0.755;0.0;0.421;1;1.605;ex7;1
5;-1;0.0;-5;2.38;Right;0.801;5;rctrl;35;-1;3;0.751;0.0;0.51;1;0.851;ex7;1
5;1;0.0;5;2.271;Right;0.801;-5;rctrl;36;-1;3;0.751;0.0;0.395;0;0.851;ex7;1
-5;1;0.0;-5;2.302;Left;0.801;-5;lctrl;37;1;3;0.751;0.0;0.438;2;0.851;ex7;1
5;1;0.0;5;2.339;Right;0.803;-5;rctrl;38;-1;3;0.753;0.0;0.461;3;0.853;ex7;1
5;-1;0.0;-5;3.566;Right;0.802;-5;rctrl;39;1;48;0.752;0.0;0.947;1;1.605;ex7;1
-5;-1;0.0;5;4.19;Left;0.801;-5;0;40;-1;48;0.751;0.0;1491.233;0;1.603;ex7;0
-5;-1;0.0;5;3.075;Left;0.803;5;lctrl;41;1;48;0.752;0.0;0.448;3;1.609;ex7;1
5;1;0.0;5;2.318;Right;0.801;5;rctrl;42;1;3;0.751;0.0;0.451;2;0.851;ex7;1
-5;-1;0.0;5;3.054;Left;0.806;5;lctrl;43;1;48;0.756;0.0;0.42;0;1.609;ex7;1
5;1;0.0;5;4.19;Right;0.801;-5;0;44;-1;48;0.751;0.0;1503.917;1;1.604;ex7;0
5;1;0.0;5;3.433;Right;0.802;5;rctrl;45;1;48;0.751;0.0;0.818;3;1.603;ex7;1
-5;1;0.0;-5;3.444;Left;0.805;5;0;46;-1;3;0.755;0.0;1510.809;1;0.855;ex7;0
-5;-1;0.0;5;3.03;Left;0.803;5;lctrl;47;1;48;0.752;0.0;0.411;2;1.605;ex7;1
-5;1;0.0;-5;3.049;Left;0.802;5;lctrl;48;-1;48;0.752;0.0;0.429;2;1.604;ex7;1
5;-1;0.0;-5;2.333;Right;0.806;5;lctrl;49;-1;3;0.756;0.0;0.434;2;0.856;ex7;0
-5;-1;0.0;5;3.034;Left;0.801;-5;lctrl;50;-1;48;0.751;0.0;0.408;1;1.604;ex7;1
5;-1;0.0;-5;2.458;Right;0.806;-5;rctrl;51;1;3;0.756;0.0;0.579;1;0.856;ex7;1
-5;1;0.0;-5;3.441;Left;0.801;-5;0;52;1;3;0.751;0.0;1528.201;3;0.851;ex7;0
5;-1;0.0;-5;3.046;Right;0.806;-5;rctrl;53;1;48;0.755;0.0;0.398;0;1.608;ex7;1
5;1;0.0;5;3.002;Right;0.802;5;rctrl;54;1;48;0.752;0.0;0.372;1;1.603;ex7;1
-5;-1;0.0;5;3.441;Left;0.801;5;0;55;1;3;0.751;0.0;1537.717;0;0.852;ex7;0
5;1;0.0;5;4.201;Right;0.807;-5;0;56;-1;48;0.757;0.0;1541.927;0;1.609;ex7;0
-5;1;0.0;-5;3.72;Left;0.802;-5;lctrl;57;1;48;0.752;0.0;1.101;3;1.604;ex7;1
-5;1;0.0;-5;3.164;Left;0.803;-5;lctrl;58;1;48;0.753;0.0;0.542;1;1.609;ex7;1
-5;-1;0.0;5;3.202;Left;0.802;-5;lctrl;59;-1;48;0.752;0.0;0.571;2;1.604;ex7;1
5;1;0.0;5;2.38;Right;0.801;-5;rctrl;60;-1;3;0.751;0.0;0.507;2;0.851;ex7;1
5;-1;0.0;-5;2.318;Right;0.805;-5;rctrl;61;1;3;0.755;0.0;0.444;2;0.855;ex7;1
-5;1;0.0;-5;3.004;Left;0.801;5;lctrl;62;-1;48;0.751;0.0;0.381;1;1.602;ex7;1
5;-1;0.0;-5;2.987;Right;0.802;5;lctrl;63;-1;48;0.752;0.0;0.334;2;1.604;ex7;0
5;1;0.0;5;3.034;Right;0.806;-5;rctrl;64;-1;48;0.756;0.0;0.4;2;1.608;ex7;1
