targ_direction;stroop_cong;trial_start;targ_pos;total_time;target_name;soa_onset;cue_pos;response;trial_number;congruent;SOA;cue_onset;fix_onset;rt;repetition;targ_onset;condition;Accuracy
-5;-1;0.0;5;2.382;Left;0.805;-5;lctrl;1;-1;3;0.755;0.0;0.514;3;0.855;practice;1
-5;1;0.0;-5;2.426;Left;0.802;5;rctrl;2;-1;3;0.752;0.0;0.529;1;0.852;practice;0
-5;-1;0.0;5;3.16;Left;0.802;5;lctrl;3;1;48;0.752;0.0;0.544;0;1.605;practice;1
5;-1;0.0;-5;2.548;Right;0.802;5;rctrl;4;-1;3;0.752;0.0;0.677;3;0.852;practice;1
-5;1;0.0;-5;2.302;Left;0.801;-5;lctrl;5;1;3;0.751;0.0;0.427;3;0.852;practice;1
-5;-1;0.0;5;3.035;Left;0.801;-5;lctrl;6;-1;48;0.751;0.0;0.406;2;1.604;practice;1
5;1;0.0;5;3.207;Right;0.801;5;rctrl;7;1;48;0.751;0.0;0.577;2;1.607;practice;1
5;-1;0.0;-5;3.098;Right;0.801;-5;rctrl;8;1;48;0.751;0.0;0.478;0;1.604;practice;1
5;-1;0.0;-5;3.004;Right;0.805;5;lctrl;9;-1;48;0.755;0.0;0.345;0;1.608;practice;0
5;1;0.0;5;2.974;Right;0.802;-5;rctrl;10;-1;48;0.752;0.0;0.333;2;1.603;practice;1
5;1;0.0;5;2.349;Right;0.801;5;rctrl;11;1;3;0.751;0.0;0.48;1;0.851;practice;1
-5;1;0.0;-5;3.02;Left;0.801;5;lctrl;12;-1;48;0.751;0.0;0.403;2;1.604;practice;1
5;1;0.0;5;2.307;Right;0.806;5;rctrl;13;1;3;0.756;0.0;0.434;3;0.856;practice;1
-5;-1;0.0;5;2.23;Left;0.801;-5;rctrl;14;-1;3;0.752;0.0;0.339;2;0.852;practice;0
5;1;0.0;5;2.551;Right;0.801;-5;rctrl;15;-1;3;0.751;0.0;0.686;2;0.852;practice;1
5;-1;0.0;-5;3.086;Right;0.802;5;rctrl;16;-1;48;0.752;0.0;0.463;1;1.609;practice;1
5;-1;0.0;-5;3.067;Right;0.801;-5;rctrl;17;1;48;0.751;0.0;0.439;1;1.604;practice;1
5;1;0.0;5;2.458;Right;0.801;-5;rctrl;18;-1;3;0.751;0.0;0.599;0;0.851;practice;1
-5;1;0.0;-5;2.392;Left;0.802;5;lctrl;19;-1;3;0.751;0.0;0.521;2;0.852;practice;1
5;1;0.0;5;2.283;Right;0.806;5;rctrl;20;1;3;0.756;0.0;0.403;0;0.857;practice;1
-5;-1;0.0;5;3.112;Left;0.802;5;lctrl;21;1;48;0.752;0.0;0.486;3;1.603;practice;1
-5;-1;0.0;5;2.988;Left;0.802;5;lctrl;22;1;48;0.752;0.0;0.357;2;1.604;practice;1
-5;-1;0.0;5;2.38;Left;0.802;-5;lctrl;23;-1;3;0.752;0.0;0.514;1;0.853;practice;1
-5;-1;0.0;5;2.271;Left;0.801;5;lctrl;24;1;3;0.751;0.0;0.392;1;0.851;practice;1
-5;1;0.0;-5;2.393;Left;0.801;-5;lctrl;25;1;3;0.751;0.0;0.528;0;0.852;practice;1
5;-1;0.0;-5;3.143;Right;0.803;-5;rctrl;26;1;48;0.753;0.0;0.517;3;1.605;practice;1
-5;1;0.0;-5;2.374;Left;0.802;5;lctrl;27;-1;3;0.752;0.0;0.482;3;0.852;practice;1
-5;-1;0.0;5;3.129;Left;0.801;-5;lctrl;28;-1;48;0.751;0.0;0.509;1;1.604;practice;1
5;-1;0.0;-5;3.111;Right;0.802;5;rctrl;29;-1;48;0.752;0.0;0.487;2;1.609;practice;1
5;-1;0.0;-5;2.342;Right;0.802;-5;rctrl;30;1;3;0.752;0.0;0.47;2;0.852;practice;1
5;-1;0.0;-5;2.361;Right;0.802;5;rctrl;31;-1;3;0.752;0.0;0.494;2;0.852;practice;1
5;1;0.0;5;2.331;Right;0.802;5;rctrl;32;1;3;0.752;0.0;0.453;2;0.852;practice;1
5;1;0.0;5;3.049;Right;0.802;5;rctrl;1;1;48;0.752;0.0;0.418;1;1.605;ex1;1
-5;1;0.0;-5;2.209;Left;0.801;5;lctrl;2;-1;3;0.751;0.0;0.331;3;0.851;ex1;1
-5;1;0.0;-5;3.02;Left;0.801;-5;lctrl;3;1;48;0.751;0.0;0.395;3;1.604;ex1;1
-5;-1;0.0;5;2.284;Left;0.802;5;lctrl;4;1;3;0.752;0.0;0.405;0;0.853;ex1;1
5;-1;0.0;-5;2.333;Right;0.801;-5;rctrl;5;1;3;0.751;0.0;0.46;3;0.851;ex1;1
-5;-1;0.0;5;2.362;Left;0.802;-5;lctrl;6;-1;3;0.752;0.0;0.492;1;0.853;ex1;1
5;-1;0.0;-5;3.237;Right;0.801;5;rctrl;7;-1;48;0.752;0.0;0.612;1;1.603;ex1;1
5;-1;0.0;-5;2.377;Right;0.801;5;rctrl;8;-1;3;0.751;0.0;0.5;2;0.852;ex1;1
-5;1;0.0;-5;3.127;Left;0.802;-5;lctrl;9;1;48;0.752;0.0;0.506;0;1.604;ex1;1
-5;-1;0.0;5;2.298;Left;0.802;5;lctrl;10;1;3;0.752;0.0;0.424;3;0.852;ex1;1
5;-1;0.0;-5;2.333;Right;0.807;5;rctrl;11;-1;3;0.757;0.0;0.451;3;0.857;ex1;1
5;-1;0.0;-5;2.988;Right;0.801;5;rctrl;12;-1;48;0.751;0.0;0.371;2;1.604;ex1;1
5;1;0.0;5;3.15;Right;0.803;-5;rctrl;13;-1;48;0.753;0.0;0.526;1;1.605;ex1;1
-5;1;0.0;-5;2.346;Left;0.802;-5;lctrl;14;1;3;0.752;0.0;0.479;1;0.852;ex1;1
5;-1;0.0;-5;2.318;Right;0.801;5;rctrl;15;-1;3;0.751;0.0;0.439;0;0.851;ex1;1
5;1;0.0;5;3.051;Right;0.801;5;rctrl;16;1;48;0.751;0.0;0.43;0;1.608;ex1;1
5;1;0.0;5;2.301;Right;0.801;-5;rctrl;17;-1;3;0.752;0.0;0.424;3;0.852;ex1;1
5;1;0.0;5;3.067;Right;0.801;5;rctrl;18;1;48;0.751;0.0;0.439;2;1.608;ex1;1
-5;1;0.0;-5;3.049;Left;0.801;5;lctrl;19;-1;48;0.752;0.0;0.416;2;1.604;ex1;1
-5;-1;0.0;5;3.006;Left;0.802;5;rctrl;20;1;48;0.752;0.0;0.362;3;1.604;ex1;0
5;1;0.0;5;3.089;Right;0.807;-5;rctrl;21;-1;48;0.757;0.0;0.456;0;1.609;ex1;1
-5;-1;0.0;5;3.113;Left;0.801;5;lctrl;22;1;48;0.751;0.0;0.493;2;1.604;ex1;1
-5;-1;0.0;5;2.348;Left;0.802;5;lctrl;23;1;3;0.752;0.0;0.472;2;0.856;ex1;1
5;1;0.0;5;2.238;Right;0.802;-5;rctrl;24;-1;3;0.752;0.0;0.368;2;0.852;ex1;1
-5;-1;0.0;5;2.372;Left;0.803;-5;lctrl;25;-1;3;0.752;0.0;0.507;0;0.853;ex1;1
5;1;0.0;5;2.186;Right;0.802;-5;rctrl;26;-1;3;0.752;0.0;0.321;0;0.852;ex1;1
-5;-1;0.0;5;3.057;Left;0.803;5;lctrl;27;1;48;0.753;0.0;0.425;0;1.61;ex1;1
-5;1;0.0;-5;3.035;Left;0.802;5;lctrl;28;-1;48;0.751;0.0;0.416;0;1.604;ex1;1
5;1;0.0;5;2.32;Right;0.802;5;rctrl;29;1;3;0.752;0.0;0.449;0;0.852;ex1;1
5;1;0.0;5;2.973;Right;0.801;-5;rctrl;30;-1;48;0.751;0.0;0.353;3;1.604;ex1;1
5;1;0.0;5;2.965;Right;0.803;-5;rctrl;31;-1;48;0.752;0.0;0.337;2;1.609;ex1;1
-5;1;0.0;-5;2.282;Left;0.802;5;lctrl;32;-1;3;0.752;0.0;0.406;0;0.852;ex1;1
5;1;0.0;5;2.302;Right;0.801;5;rctrl;33;1;3;0.751;0.0;0.438;1;0.851;ex1;1
5;1;0.0;5;2.261;Right;0.803;-5;rctrl;34;-1;3;0.753;0.0;0.39;1;0.853;ex1;1
-5;-1;0.0;5;2.378;Left;0.807;5;lctrl;35;1;3;0.756;0.0;0.5;1;0.857;ex1;1
5;-1;0.0;-5;3.124;Right;0.802;-5;rctrl;36;1;48;0.752;0.0;0.514;1;1.605;ex1;1
-5;1;0.0;-5;3.075;Left;0.802;-5;lctrl;37;1;48;0.752;0.0;0.465;2;1.604;ex1;1
5;1;0.0;5;2.343;Right;0.802;5;rctrl;38;1;3;0.752;0.0;0.473;2;0.852;ex1;1
5;-1;0.0;-5;3.048;Right;0.806;5;rctrl;39;-1;48;0.756;0.0;0.42;3;1.609;ex1;1
5;-1;0.0;-5;3.047;Right;0.802;-5;rctrl;40;1;48;0.752;0.0;0.422;2;1.604;ex1;1
-5;1;0.0;-5;2.348;Left;0.802;5;lctrl;41;-1;3;0.752;0.0;0.472;1;0.852;ex1;1
5;-1;0.0;-5;2.283;Right;0.802;-5;rctrl;42;1;3;0.752;0.0;0.408;1;0.853;ex1;1
-5;-1;0.0;5;2.333;Left;0.801;-5;lctrl;43;-1;3;0.751;0.0;0.464;2;0.851;ex1;1
5;-1;0.0;-5;2.221;Right;0.802;-5;rctrl;44;1;3;0.752;0.0;0.344;0;0.853;ex1;1
-5;-1;0.0;5;3.098;Left;0.806;-5;lctrl;45;-1;48;0.756;0.0;0.448;2;1.608;ex1;1
-5;1;0.0;-5;2.363;Left;0.802;-5;lctrl;46;1;3;0.752;0.0;0.491;2;0.852;ex1;1
5;1;0.0;5;3.004;Right;0.801;5;rctrl;47;1;48;0.751;0.0;0.377;3;1.604;ex1;1
-5;1;0.0;-5;3.189;Left;0.802;-5;lctrl;48;1;48;0.752;0.0;0.571;1;1.605;ex1;1
5;-1;0.0;-5;3.026;Right;0.802;-5;lctrl;49;1;48;0.752;0.0;0.375;3;1.604;ex1;0
-5;1;0.0;-5;2.551;Left;0.801;5;lctrl;50;-1;3;0.751;0.0;0.678;2;0.851;ex1;1
-5;-1;0.0;5;3.16;Left;0.806;5;lctrl;51;1;48;0.756;0.0;0.515;1;1.608;ex1;1
5;-1;0.0;-5;2.318;Right;0.806;-5;rctrl;52;1;3;0.756;0.0;0.437;2;0.856;ex1;1
-5;-1;0.0;5;2.349;Left;0.801;-5;lctrl;53;-1;3;0.751;0.0;0.485;3;0.851;ex1;1
-5;-1;0.0;5;3.085;Left;0.801;-5;lctrl;54;-1;48;0.751;0.0;0.461;0;1.603;ex1;1
-5;1;0.0;-5;2.347;Left;0.802;-5;lctrl;55;1;3;0.752;0.0;0.471;0;0.852;ex1;1
-5;-1;0.0;5;4.19;Left;0.801;-5;0;56;-1;48;0.751;0.0;387.148;3;1.604;ex1;0
5;-1;0.0;-5;2.388;Right;0.803;5;rctrl;57;-1;3;0.752;0.0;0.511;1;0.853;ex1;1
5;-1;0.0;-5;3.051;Right;0.801;5;rctrl;58;-1;48;0.751;0.0;0.418;0;1.607;ex1;1
-5;1;0.0;-5;3.129;Left;0.801;5;lctrl;59;-1;48;0.751;0.0;0.505;1;1.607;ex1;1
5;-1;0.0;-5;3.093;Right;0.8;-5;rctrl;60;1;48;0.75;0.0;0.473;0;1.602;ex1;1
-5;1;0.0;-5;3.048;Left;0.802;5;lctrl;61;-1;48;0.751;0.0;0.425;3;1.604;ex1;1
5;1;0.0;5;2.302;Right;0.801;5;rctrl;62;1;3;0.752;0.0;0.435;3;0.851;ex1;1
-5;1;0.0;-5;2.323;Left;0.807;-5;lctrl;63;1;3;0.757;0.0;0.447;3;0.857;ex1;1
-5;-1;0.0;5;3.067;Left;0.801;-5;lctrl;64;-1;48;0.751;0.0;0.449;1;1.604;ex1;1
-5;-1;0.0;5;2.301;Left;0.801;-5;lctrl;1;-1;3;0.751;0.0;0.438;2;0.852;ex2;1
-5;-1;0.0;5;3.071;Left;0.803;5;lctrl;2;1;48;0.753;0.0;0.441;1;1.61;ex2;1
-5;1;0.0;-5;2.973;Left;0.801;5;lctrl;3;-1;48;0.751;0.0;0.352;1;1.604;ex2;1
-5;-1;0.0;5;2.247;Left;0.801;5;lctrl;4;1;3;0.751;0.0;0.382;3;0.851;ex2;1
5;1;0.0;5;3.1;Right;0.802;5;rctrl;5;1;48;0.752;0.0;0.469;2;1.609;ex2;1
5;-1;0.0;-5;2.316;Right;0.802;-5;rctrl;6;1;3;0.752;0.0;0.445;0;0.852;ex2;1
-5;-1;0.0;5;2.318;Left;0.801;-5;lctrl;7;-1;3;0.751;0.0;0.451;0;0.851;ex2;1
-5;1;0.0;-5;2.369;Left;0.803;-5;lctrl;8;1;3;0.753;0.0;0.482;3;0.853;ex2;1
5;-1;0.0;-5;3.051;Right;0.801;-5;rctrl;9;1;48;0.751;0.0;0.435;1;1.604;ex2;1
-5;-1;0.0;5;3.038;Left;0.801;-5;lctrl;10;-1;48;0.751;0.0;0.421;1;1.603;ex2;1
-5;1;0.0;-5;3.104;Left;0.803;5;lctrl;11;-1;48;0.753;0.0;0.474;2;1.608;ex2;1
5;-1;0.0;-5;2.349;Right;0.801;-5;rctrl;12;1;3;0.751;0.0;0.472;1;0.851;ex2;1
5;-1;0.0;-5;3.082;Right;0.801;-5;rctrl;13;1;48;0.751;0.0;0.447;2;1.608;ex2;1
-5;-1;0.0;5;3.065;Left;0.802;5;lctrl;14;1;48;0.752;0.0;0.432;3;1.605;ex2;1
5;1;0.0;5;3.098;Right;0.801;5;rctrl;15;1;48;0.751;0.0;0.475;0;1.602;ex2;1
-5;-1;0.0;5;2.38;Left;0.801;-5;lctrl;16;-1;3;0.751;0.0;0.506;3;0.851;ex2;1
5;-1;0.0;-5;2.505;Right;0.804;5;rctrl;17;-1;3;0.754;0.0;0.635;2;0.855;ex2;1
5;1;0.0;5;3.025;Right;0.802;-5;rctrl;18;-1;48;0.752;0.0;0.396;2;1.604;ex2;1
5;1;0.0;5;2.318;Right;0.801;5;rctrl;19;1;3;0.751;0.0;0.453;2;0.851;ex2;1
-5;-1;0.0;5;3.087;Left;0.803;-5;lctrl;20;-1;48;0.753;0.0;0.46;2;1.605;ex2;1
5;-1;0.0;-5;3.098;Right;0.805;-5;rctrl;21;1;48;0.755;0.0;0.475;0;1.608;ex2;1
5;1;0.0;5;3.031;Right;0.802;-5;rctrl;22;-1;48;0.752;0.0;0.411;0;1.604;ex2;1
5;-1;0.0;-5;3.067;Right;0.801;-5;rctrl;23;1;48;0.751;0.0;0.441;3;1.608;ex2;1
5;-1;0.0;-5;3.018;Right;0.802;5;rctrl;24;-1;48;0.752;0.0;0.394;3;1.605;ex2;1
5;1;0.0;5;2.318;Right;0.801;-5;rctrl;25;-1;3;0.751;0.0;0.442;1;0.851;ex2;1
5;-1;0.0;-5;2.318;Right;0.802;5;rctrl;26;-1;3;0.753;0.0;0.453;1;0.852;ex2;1
5;-1;0.0;-5;2.492;Right;0.801;5;rctrl;27;-1;3;0.751;0.0;0.629;3;0.851;ex2;1
-5;1;0.0;-5;2.331;Left;0.802;-5;lctrl;28;1;3;0.752;0.0;0.462;1;0.853;ex2;1
-5;-1;0.0;5;3.082;Left;0.801;5;lctrl;29;1;48;0.751;0.0;0.463;0;1.602;ex2;1
5;1;0.0;5;2.315;Right;0.802;-5;rctrl;30;-1;3;0.752;0.0;0.441;3;0.852;ex2;1
-5;-1;0.0;5;2.38;Left;0.801;5;lctrl;31;1;3;0.751;0.0;0.504;2;0.851;ex2;1
5;1;0.0;5;2.957;Right;0.801;-5;rctrl;32;-1;48;0.751;0.0;0.329;1;1.608;ex2;1
-5;1;0.0;-5;2.318;Left;0.801;5;lctrl;33;-1;3;0.751;0.0;0.442;2;0.851;ex2;1
-5;1;0.0;-5;2.315;Left;0.802;-5;lctrl;34;1;3;0.752;0.0;0.441;0;0.852;ex2;1
-5;1;0.0;-5;3.082;Left;0.801;5;lctrl;35;-1;48;0.751;0.0;0.456;0;1.604;ex2;1
5;1;0.0;5;2.287;Right;0.801;5;rctrl;36;1;3;0.751;0.0;0.411;1;0.857;ex2;1
5;-1;0.0;-5;3.113;Right;0.801;5;rctrl;37;-1;48;0.751;0.0;0.498;1;1.604;ex2;1
-5;1;0.0;-5;2.566;Left;0.802;5;lctrl;38;-1;3;0.752;0.0;0.69;0;0.852;ex2;1
5;-1;0.0;-5;2.268;Right;0.802;-5;rctrl;39;1;3;0.752;0.0;0.393;2;0.853;ex2;1
5;-1;0.0;-5;3.082;Right;0.801;5;rctrl;40;-1;48;0.751;0.0;0.45;0;1.608;ex2;1
-5;1;0.0;-5;3.048;Left;0.802;-5;lctrl;41;1;48;0.752;0.0;0.42;2;1.603;ex2;1
5;-1;0.0;-5;2.271;Right;0.801;-5;rctrl;42;1;3;0.751;0.0;0.405;3;0.851;ex2;1
-5;-1;0.0;5;3.246;Left;0.802;5;lctrl;43;1;48;0.752;0.0;0.624;2;1.604;ex2;1
-5;-1;0.0;5;2.489;Left;0.802;5;lctrl;44;1;3;0.752;0.0;0.613;1;0.857;ex2;1
-5;-1;0.0;5;3.129;Left;0.801;-5;lctrl;45;-1;48;0.751;0.0;0.5;3;1.603;ex2;1
5;1;0.0;5;2.426;Right;0.802;-5;rctrl;46;-1;3;0.752;0.0;0.554;0;0.852;ex2;1
5;1;0.0;5;3.017;Right;0.807;5;rctrl;47;1;48;0.756;0.0;0.385;1;1.608;ex2;1
-5;1;0.0;-5;2.971;Left;0.802;-5;lctrl;48;1;48;0.752;0.0;0.364;1;1.604;ex2;1
-5;1;0.0;-5;2.994;Left;0.803;-5;lctrl;49;1;48;0.753;0.0;0.371;0;1.61;ex2;1
-5;-1;0.0;5;2.309;Left;0.803;5;lctrl;50;1;3;0.753;0.0;0.438;0;0.853;ex2;1
5;-1;0.0;-5;2.36;Right;0.802;5;rctrl;51;-1;3;0.752;0.0;0.487;0;0.852;ex2;1
-5;-1;0.0;5;2.378;Left;0.801;-5;lctrl;52;-1;3;0.752;0.0;0.511;1;0.851;ex2;1
-5;-1;0.0;5;3.237;Left;0.802;-5;lctrl;53;-1;48;0.752;0.0;0.616;0;1.608;ex2;1
5;1;0.0;5;2.321;Right;0.802;5;rctrl;54;1;3;0.752;0.0;0.451;0;0.852;ex2;1
5;1;0.0;5;2.309;Right;0.802;5;rctrl;55;1;3;0.752;0.0;0.436;3;0.852;ex2;1
-5;1;0.0;-5;3.048;Left;0.802;5;lctrl;56;-1;48;0.752;0.0;0.428;3;1.604;ex2;1
-5;1;0.0;-5;3.067;Left;0.801;-5;lctrl;57;1;48;0.751;0.0;0.442;3;1.608;ex2;1
-5;1;0.0;-5;2.425;Left;0.801;5;lctrl;58;-1;3;0.751;0.0;0.548;1;0.851;ex2;1
5;1;0.0;5;3.098;Right;0.803;5;rctrl;59;1;48;0.753;0.0;0.467;3;1.604;ex2;1
-5;1;0.0;-5;2.474;Left;0.801;-5;lctrl;60;1;3;0.751;0.0;0.604;2;0.851;ex2;1
5;1;0.0;5;3.03;Right;0.802;-5;rctrl;61;-1;48;0.752;0.0;0.413;3;1.604;ex2;1
5;1;0.0;5;2.223;Right;0.801;-5;rctrl;62;-1;3;0.751;0.0;0.353;2;0.851;ex2;1
-5;1;0.0;-5;2.313;Left;0.806;5;lctrl;63;-1;3;0.755;0.0;0.433;3;0.856;ex2;1
5;-1;0.0;-5;3.079;Right;0.801;5;rctrl;64;-1;48;0.751;0.0;0.459;2;1.603;ex2;1
-5;1;0.0;-5;2.41;Left;0.801;5;lctrl;1;-1;3;0.751;0.0;0.539;0;0.851;ex3;1
-5;-1;0.0;5;2.394;Left;0.806;5;lctrl;2;1;3;0.756;0.0;0.523;1;0.857;ex3;1
-5;-1;0.0;5;3.107;Left;0.802;5;lctrl;3;1;48;0.752;0.0;0.481;3;1.604;ex3;1
5;-1;0.0;-5;2.316;Right;0.802;5;rctrl;4;-1;3;0.752;0.0;0.446;2;0.851;ex3;1
5;1;0.0;5;2.318;Right;0.801;5;lctrl;5;1;3;0.751;0.0;0.42;1;0.851;ex3;0
5;-1;0.0;-5;3.063;Right;0.801;5;rctrl;6;-1;48;0.751;0.0;0.435;2;1.604;ex3;1
5;1;0.0;5;3.019;Right;0.802;-5;rctrl;7;-1;48;0.752;0.0;0.396;3;1.604;ex3;1
5;1;0.0;5;2.22;Right;0.802;5;rctrl;8;1;3;0.752;0.0;0.35;0;0.853;ex3;1
-5;-1;0.0;5;3.167;Left;0.803;-5;lctrl;9;-1;48;0.753;0.0;0.538;0;1.605;ex3;1
5;-1;0.0;-5;3.035;Right;0.801;5;rctrl;10;-1;48;0.751;0.0;0.401;0;1.608;ex3;1
-5;1;0.0;-5;2.583;Left;0.801;-5;rctrl;11;1;3;0.751;0.0;0.684;3;0.851;ex3;0
-5;-1;0.0;5;3.05;Left;0.801;-5;lctrl;12;-1;48;0.751;0.0;0.424;3;1.608;ex3;1
5;-1;0.0;-5;2.331;Right;0.802;5;rctrl;13;-1;3;0.752;0.0;0.458;1;0.852;ex3;1
-5;-1;0.0;5;2.411;Left;0.8;5;lctrl;14;1;3;0.75;0.0;0.546;2;0.85;ex3;1
-5;1;0.0;-5;3.082;Left;0.801;-5;lctrl;15;1;48;0.751;0.0;0.454;0;1.604;ex3;1
-5;-1;0.0;5;2.427;Left;0.805;-5;lctrl;16;-1;3;0.755;0.0;0.546;2;0.855;ex3;1
5;-1;0.0;-5;2.364;Right;0.804;5;rctrl;17;-1;3;0.754;0.0;0.488;0;0.855;ex3;1
-5;1;0.0;-5;3.097;Left;0.802;5;lctrl;18;-1;48;0.752;0.0;0.48;1;1.603;ex3;1
5;1;0.0;5;2.287;Right;0.801;5;rctrl;19;1;3;0.751;0.0;0.408;3;0.851;ex3;1
5;1;0.0;5;2.223;Right;0.802;-5;rctrl;20;-1;3;0.752;0.0;0.345;3;0.852;ex3;1
5;-1;0.0;-5;3.082;Right;0.806;5;rctrl;21;-1;48;0.756;0.0;0.455;1;1.608;ex3;1
-5;-1;0.0;5;3.001;Left;0.802;5;rctrl;22;1;48;0.752;0.0;0.352;1;1.604;ex3;0
-5;-1;0.0;5;3.078;Left;0.802;5;lctrl;23;1;48;0.752;0.0;0.451;0;1.605;ex3;1
5;1;0.0;5;3.047;Right;0.802;-5;rctrl;24;-1;48;0.752;0.0;0.419;0;1.604;ex3;1
-5;1;0.0;-5;3.128;Left;0.802;5;lctrl;25;-1;48;0.751;0.0;0.504;3;1.609;ex3;1
-5;1;0.0;-5;2.388;Left;0.802;-5;lctrl;26;1;3;0.752;0.0;0.51;2;0.852;ex3;1
5;1;0.0;5;2.97;Right;0.802;-5;rctrl;27;-1;48;0.752;0.0;0.344;2;1.605;ex3;1
-5;-1;0.0;5;3.082;Left;0.801;-5;lctrl;28;-1;48;0.751;0.0;0.452;1;1.608;ex3;1
-5;1;0.0;-5;2.346;Left;0.802;5;lctrl;29;-1;3;0.752;0.0;0.468;3;0.852;ex3;1
5;1;0.0;5;3.02;Right;0.801;-5;rctrl;30;-1;48;0.751;0.0;0.396;1;1.604;ex3;1
5;1;0.0;5;2.252;Right;0.801;-5;rctrl;31;-1;3;0.751;0.0;0.376;0;0.85;ex3;1
-5;1;0.0;-5;3.113;Left;0.801;-5;lctrl;32;1;48;0.751;0.0;0.487;3;1.608;ex3;1
-5;1;0.0;-5;3.061;Left;0.801;5;lctrl;33;-1;48;0.751;0.0;0.439;2;1.603;ex3;1
5;-1;0.0;-5;3.049;Right;0.802;-5;rctrl;34;1;48;0.752;0.0;0.424;0;1.604;ex3;1
-5;1;0.0;-5;2.521;Left;0.801;-5;lctrl;35;1;3;0.751;0.0;0.649;0;0.851;ex3;1
-5;-1;0.0;5;2.63;Left;0.801;-5;lctrl;36;-1;3;0.751;0.0;0.762;3;0.852;ex3;1
5;1;0.0;5;3.16;Right;0.801;5;rctrl;37;1;48;0.751;0.0;0.532;1;1.604;ex3;1
-5;-1;0.0;5;2.36;Left;0.807;5;lctrl;38;1;3;0.756;0.0;0.477;3;0.857;ex3;1
-5;-1;0.0;5;3.035;Left;0.805;5;lctrl;39;1;3;0.756;0.0;1.167;0;0.855;ex3;1
-5;-1;0.0;5;2.461;Left;0.801;-5;lctrl;40;-1;3;0.751;0.0;0.596;1;0.851;ex3;1
5;1;0.0;5;2.208;Right;0.802;-5;rctrl;41;-1;3;0.752;0.0;0.335;2;0.852;ex3;1
-5;-1;0.0;5;3.155;Left;0.802;-5;lctrl;42;-1;48;0.752;0.0;0.515;2;1.605;ex3;1
-5;1;0.0;-5;2.458;Left;0.801;5;lctrl;43;-1;3;0.751;0.0;0.586;2;0.852;ex3;1
5;1;0.0;5;3.203;Right;0.8;5;rctrl;44;1;48;0.751;0.0;0.598;0;1.603;ex3;1
5;-1;0.0;-5;3.072;Right;0.802;-5;rctrl;45;1;48;0.752;0.0;0.45;2;1.603;ex3;1
5;1;0.0;5;2.996;Right;0.802;5;rctrl;46;1;48;0.752;0.0;0.349;3;1.609;ex3;1
5;-1;0.0;-5;3.098;Right;0.806;-5;rctrl;47;1;48;0.756;0.0;0.475;3;1.608;ex3;1
-5;1;0.0;-5;3.078;Left;0.801;-5;lctrl;48;1;48;0.751;0.0;0.452;1;1.603;ex3;1
5;1;0.0;5;2.316;Right;0.802;5;rctrl;49;1;3;0.752;0.0;0.437;2;0.852;ex3;1
5;-1;0.0;-5;2.252;Right;0.802;-5;rctrl;50;1;3;0.752;0.0;0.398;1;0.853;ex3;1
5;1;0.0;5;2.993;Right;0.803;5;rctrl;51;1;48;0.753;0.0;0.368;2;1.605;ex3;1
5;1;0.0;5;2.25;Right;0.803;-5;rctrl;52;-1;3;0.752;0.0;0.379;1;0.853;ex3;1
-5;-1;0.0;5;2.394;Left;0.801;-5;lctrl;53;-1;3;0.752;0.0;0.522;0;0.851;ex3;1
-5;1;0.0;-5;2.409;Left;0.802;5;lctrl;54;-1;3;0.752;0.0;0.543;1;0.852;ex3;1
-5;1;0.0;-5;3.095;Left;0.802;5;lctrl;55;-1;48;0.751;0.0;0.467;0;1.604;ex3;1
5;-1;0.0;-5;2.393;Right;0.802;-5;rctrl;56;1;3;0.752;0.0;0.523;2;0.853;ex3;1
5;-1;0.0;-5;2.252;Right;0.807;-5;rctrl;57;1;3;0.756;0.0;0.372;0;0.857;ex3;1
5;-1;0.0;-5;3.004;Right;0.801;-5;rctrl;58;1;48;0.751;0.0;0.383;1;1.603;ex3;1
5;-1;0.0;-5;2.278;Right;0.803;5;rctrl;59;-1;3;0.753;0.0;0.401;3;0.853;ex3;1
5;-1;0.0;-5;2.207;Right;0.802;-5;rctrl;60;1;3;0.752;0.0;0.327;3;0.857;ex3;1
5;-1;0.0;-5;3.02;Right;0.801;5;rctrl;61;-1;48;0.751;0.0;0.39;3;1.604;ex3;1
-5;1;0.0;-5;2.443;Left;0.803;-5;lctrl;62;1;3;0.752;0.0;0.564;1;0.853;ex3;1
-5;-1;0.0;5;3.16;Left;0.802;5;lctrl;63;1;48;0.752;0.0;0.539;2;1.604;ex3;1
-5;1;0.0;-5;3.047;Left;0.802;-5;lctrl;64;1;48;0.752;0.0;0.416;2;1.604;ex3;1
-5;-1;0.0;5;2.278;Left;0.803;5;lctrl;1;1;3;0.753;0.0;0.412;0;0.853;ex4;1
-5;1;0.0;-5;2.207;Left;0.807;5;lctrl;2;-1;3;0.756;0.0;0.338;3;0.857;ex4;1
5;-1;0.0;-5;2.292;Right;0.803;-5;rctrl;3;1;3;0.753;0.0;0.423;2;0.853;ex4;1
5;-1;0.0;-5;2.984;Right;0.801;-5;rctrl;4;1;48;0.751;0.0;0.36;2;1.604;ex4;1
5;-1;0.0;-5;2.318;Right;0.805;5;rctrl;5;-1;3;0.755;0.0;0.437;3;0.856;ex4;1
-5;-1;0.0;5;2.349;Left;0.801;-5;lctrl;6;-1;3;0.751;0.0;0.477;3;0.851;ex4;1
-5;1;0.0;-5;3.082;Left;0.801;-5;lctrl;7;1;48;0.751;0.0;0.457;1;1.604;ex4;1
-5;1;0.0;-5;3.079;Left;0.801;-5;lctrl;8;1;48;0.751;0.0;0.453;2;1.604;ex4;1
-5;-1;0.0;5;3.143;Left;0.8;5;lctrl;9;1;48;0.75;0.0;0.526;2;1.603;ex4;1
5;1;0.0;5;3.062;Right;0.802;5;rctrl;10;1;48;0.752;0.0;0.444;0;1.604;ex4;1
5;1;0.0;5;2.3;Right;0.807;5;rctrl;11;1;3;0.756;0.0;0.416;3;0.857;ex4;1
5;-1;0.0;-5;3.035;Right;0.801;-5;rctrl;12;1;48;0.751;0.0;0.42;3;1.602;ex4;1
-5;1;0.0;-5;2.322;Left;0.803;-5;lctrl;13;1;3;0.753;0.0;0.452;2;0.853;ex4;1
5;1;0.0;5;2.919;Right;0.802;5;rctrl;14;1;48;0.751;0.0;0.288;2;1.608;ex4;1
-5;-1;0.0;5;2.973;Left;0.802;5;rctrl;15;1;48;0.752;0.0;0.334;3;1.605;ex4;0
-5;1;0.0;-5;2.324;Left;0.803;5;lctrl;16;-1;3;0.753;0.0;0.458;0;0.853;ex4;1
-5;-1;0.0;5;2.344;Left;0.802;5;lctrl;17;1;3;0.752;0.0;0.466;2;0.852;ex4;1
5;1;0.0;5;2.285;Right;0.807;-5;rctrl;18;-1;3;0.756;0.0;0.414;0;0.857;ex4;1
-5;1;0.0;-5;3.098;Left;0.801;5;lctrl;19;-1;48;0.751;0.0;0.471;1;1.604;ex4;1
5;-1;0.0;-5;2.318;Right;0.801;-5;rctrl;20;1;3;0.751;0.0;0.447;3;0.851;ex4;1
-5;1;0.0;-5;3.049;Left;0.801;5;lctrl;21;-1;48;0.751;0.0;0.424;0;1.604;ex4;1
-5;-1;0.0;5;3.067;Left;0.801;5;lctrl;22;1;48;0.751;0.0;0.44;0;1.604;ex4;1
5;1;0.0;5;2.365;Right;0.806;5;rctrl;23;1;3;0.756;0.0;0.483;1;0.856;ex4;1
-5;-1;0.0;5;3.174;Left;0.801;-5;lctrl;24;-1;48;0.751;0.0;0.546;0;1.604;ex4;1
5;-1;0.0;-5;2.287;Right;0.802;-5;rctrl;25;1;3;0.752;0.0;0.421;1;0.852;ex4;1
5;-1;0.0;-5;3.025;Right;0.803;5;lctrl;26;-1;48;0.753;0.0;0.381;1;1.605;ex4;0
-5;1;0.0;-5;2.342;Left;0.803;5;lctrl;27;-1;3;0.752;0.0;0.462;2;0.853;ex4;1
5;1;0.0;5;2.287;Right;0.801;-5;rctrl;28;-1;3;0.751;0.0;0.411;3;0.851;ex4;1
5;-1;0.0;-5;2.365;Right;0.803;-5;rctrl;29;1;3;0.753;0.0;0.485;0;0.853;ex4;1
5;-1;0.0;-5;2.427;Right;0.8;5;rctrl;30;-1;3;0.75;0.0;0.556;1;0.85;ex4;1
-5;-1;0.0;5;2.364;Left;0.802;-5;lctrl;31;-1;3;0.752;0.0;0.496;0;0.852;ex4;1
5;1;0.0;5;3.191;Right;0.801;-5;rctrl;32;-1;48;0.752;0.0;0.569;1;1.608;ex4;1
-5;1;0.0;-5;3.072;Left;0.802;-5;lctrl;33;1;48;0.752;0.0;0.452;0;1.604;ex4;1
-5;1;0.0;-5;3.025;Left;0.803;5;lctrl;34;-1;48;0.753;0.0;0.404;3;1.605;ex4;1
5;1;0.0;5;2.997;Right;0.806;5;rctrl;35;1;48;0.756;0.0;0.369;3;1.608;ex4;1
5;1;0.0;5;2.235;Right;0.802;-5;rctrl;36;-1;3;0.752;0.0;0.356;1;0.853;ex4;1
5;1;0.0;5;2.271;Right;0.806;5;rctrl;37;1;3;0.756;0.0;0.391;0;0.856;ex4;1
5;1;0.0;5;2.973;Right;0.801;-5;rctrl;38;-1;48;0.751;0.0;0.349;2;1.604;ex4;1
5;1;0.0;5;2.341;Right;0.807;-5;rctrl;39;-1;3;0.757;0.0;0.461;2;0.857;ex4;1
5;-1;0.0;-5;2.411;Right;0.801;5;rctrl;40;-1;3;0.751;0.0;0.535;2;0.851;ex4;1
5;1;0.0;5;2.988;Right;0.802;-5;rctrl;41;-1;48;0.752;0.0;0.367;3;1.608;ex4;1
-5;1;0.0;-5;2.367;Left;0.801;-5;lctrl;42;1;3;0.751;0.0;0.493;3;0.851;ex4;1
5;-1;0.0;-5;2.411;Right;0.801;5;rctrl;43;-1;3;0.751;0.0;0.542;0;0.851;ex4;1
-5;-1;0.0;5;2.411;Left;0.806;-5;lctrl;44;-1;3;0.756;0.0;0.535;2;0.856;ex4;1
-5;-1;0.0;5;3.092;Left;0.8;-5;lctrl;45;-1;48;0.75;0.0;0.476;1;1.603;ex4;1
-5;1;0.0;-5;2.328;Left;0.802;5;lctrl;46;-1;3;0.752;0.0;0.452;1;0.852;ex4;1
-5;-1;0.0;5;2.364;Left;0.802;-5;lctrl;47;-1;3;0.752;0.0;0.493;1;0.852;ex4;1
5;-1;0.0;-5;3.082;Right;0.806;5;rctrl;48;-1;48;0.756;0.0;0.462;3;1.608;ex4;1
5;-1;0.0;-5;3.001;Right;0.801;5;rctrl;49;-1;48;0.751;0.0;0.375;0;1.603;ex4;1
5;-1;0.0;-5;3.082;Right;0.806;-5;rctrl;50;1;48;0.756;0.0;0.45;0;1.608;ex4;1
-5;-1;0.0;5;2.393;Left;0.802;5;lctrl;51;1;3;0.752;0.0;0.522;1;0.852;ex4;1
5;1;0.0;5;2.362;Right;0.801;5;rctrl;52;1;3;0.751;0.0;0.496;2;0.852;ex4;1
-5;-1;0.0;5;3.128;Left;0.802;-5;lctrl;53;-1;48;0.752;0.0;0.503;2;1.604;ex4;1
-5;1;0.0;-5;3.095;Left;0.807;5;lctrl;54;-1;48;0.756;0.0;0.473;2;1.608;ex4;1
5;-1;0.0;-5;3.122;Right;0.802;5;rctrl;55;-1;48;0.752;0.0;0.496;2;1.604;ex4;1
-5;-1;0.0;5;3.129;Left;0.804;5;lctrl;56;1;48;0.754;0.0;0.51;1;1.606;ex4;1
-5;1;0.0;-5;3.14;Left;0.802;-5;lctrl;57;1;48;0.752;0.0;0.516;3;1.604;ex4;1
-5;-1;0.0;5;2.357;Left;0.802;5;lctrl;58;1;3;0.752;0.0;0.49;3;0.852;ex4;1
5;1;0.0;5;3.077;Right;0.807;5;rctrl;59;1;48;0.757;0.0;0.444;1;1.609;ex4;1
5;-1;0.0;-5;3.082;Right;0.806;-5;rctrl;60;1;48;0.755;0.0;0.457;1;1.608;ex4;1
5;1;0.0;5;3.064;Right;0.802;-5;rctrl;61;-1;48;0.751;0.0;0.441;0;1.604;ex4;1
-5;1;0.0;-5;2.348;Left;0.802;-5;lctrl;62;1;3;0.752;0.0;0.475;1;0.852;ex4;1
-5;-1;0.0;5;3.266;Left;0.802;-5;lctrl;63;-1;48;0.752;0.0;0.644;3;1.604;ex4;1
-5;1;0.0;-5;2.349;Left;0.801;-5;lctrl;64;1;3;0.751;0.0;0.484;0;0.851;ex4;1
5;1;0.0;5;2.207;Right;0.801;-5;rctrl;1;-1;3;0.751;0.0;0.333;3;0.852;ex5;1
5;1;0.0;5;2.266;Right;0.807;5;rctrl;2;1;3;0.752;0.0;0.389;1;0.857;ex5;1
5;-1;0.0;-5;3.223;Right;0.803;5;rctrl;3;-1;48;0.753;0.0;0.6;0;1.605;ex5;1
5;-1;0.0;-5;2.308;Right;0.802;-5;rctrl;4;1;3;0.752;0.0;0.442;2;0.852;ex5;1
5;-1;0.0;-5;2.361;Right;0.802;5;rctrl;5;-1;3;0.752;0.0;0.483;0;0.852;ex5;1
5;-1;0.0;-5;3.143;Right;0.802;-5;rctrl;6;1;48;0.752;0.0;0.51;3;1.609;ex5;1
5;-1;0.0;-5;3.066;Right;0.801;5;rctrl;7;-1;48;0.751;0.0;0.433;1;1.608;ex5;1
-5;-1;0.0;5;3.33;Left;0.802;5;lctrl;8;1;48;0.752;0.0;0.706;1;1.605;ex5;1
-5;1;0.0;-5;3.003;Left;0.802;5;lctrl;9;-1;48;0.752;0.0;0.383;2;1.605;ex5;1
-5;-1;0.0;5;2.367;Left;0.806;-5;lctrl;10;-1;3;0.756;0.0;0.486;3;0.856;ex5;1
5;1;0.0;5;2.318;Right;0.801;5;rctrl;11;1;3;0.751;0.0;0.452;2;0.851;ex5;1
-5;1;0.0;-5;3.102;Left;0.803;-5;lctrl;12;1;48;0.753;0.0;0.484;3;1.605;ex5;1
5;1;0.0;5;3.022;Right;0.801;5;rctrl;13;1;48;0.751;0.0;0.39;0;1.608;ex5;1
-5;1;0.0;-5;3.051;Left;0.801;5;lctrl;14;-1;48;0.751;0.0;0.429;3;1.604;ex5;1
-5;-1;0.0;5;3.047;Left;0.802;5;lctrl;15;1;48;0.752;0.0;0.424;0;1.604;ex5;1
-5;-1;0.0;5;3.02;Left;0.801;5;lctrl;16;1;48;0.751;0.0;0.401;2;1.604;ex5;1
-5;1;0.0;-5;3.071;Left;0.803;-5;lctrl;17;1;48;0.753;0.0;0.446;0;1.61;ex5;1
-5;1;0.0;-5;3.082;Left;0.801;5;lctrl;18;-1;48;0.751;0.0;0.462;1;1.604;ex5;1
-5;-1;0.0;5;2.271;Left;0.801;5;lctrl;19;1;3;0.751;0.0;0.406;2;0.852;ex5;1
5;1;0.0;5;2.294;Right;0.807;-5;rctrl;20;-1;3;0.757;0.0;0.419;2;0.857;ex5;1
5;1;0.0;5;3.201;Right;0.802;-5;rctrl;21;-1;48;0.752;0.0;0.598;0;1.603;ex5;1
-5;1;0.0;-5;2.32;Left;0.8;5;lctrl;22;-1;3;0.75;0.0;0.45;0;0.85;ex5;1
-5;1;0.0;-5;2.561;Left;0.802;5;lctrl;23;-1;3;0.751;0.0;0.683;1;0.852;ex5;1
5;-1;0.0;-5;2.301;Right;0.802;-5;rctrl;24;1;3;0.752;0.0;0.434;3;0.852;ex5;1
5;1;0.0;5;2.32;Right;0.806;5;rctrl;25;1;3;0.756;0.0;0.437;3;0.856;ex5;1
-5;1;0.0;-5;3.082;Left;0.801;-5;lctrl;26;1;48;0.751;0.0;0.458;1;1.604;ex5;1
-5;1;0.0;-5;2.364;Left;0.806;-5;lctrl;27;1;3;0.756;0.0;0.485;1;0.856;ex5;1
5;-1;0.0;-5;3.018;Right;0.802;5;rctrl;28;-1;48;0.752;0.0;0.396;2;1.604;ex5;1
-5;-1;0.0;5;2.365;Left;0.801;-5;lctrl;29;-1;3;0.751;0.0;0.492;1;0.852;ex5;1
5;-1;0.0;-5;3.063;Right;0.802;5;rctrl;30;-1;48;0.752;0.0;0.445;3;1.604;ex5;1
-5;1;0.0;-5;2.426;Left;0.801;-5;lctrl;31;1;3;0.751;0.0;0.551;0;0.851;ex5;1
-5;-1;0.0;5;2.97;Left;0.802;-5;rctrl;32;-1;48;0.751;0.0;0.322;1;1.604;ex5;0
5;-1;0.0;-5;2.457;Right;0.801;-5;rctrl;33;1;3;0.751;0.0;0.594;1;0.851;ex5;1
5;-1;0.0;-5;3.077;Right;0.802;-5;rctrl;34;1;48;0.751;0.0;0.452;0;1.604;ex5;1
-5;1;0.0;-5;2.438;Left;0.802;5;lctrl;35;-1;3;0.752;0.0;0.572;2;0.852;ex5;1
5;-1;0.0;-5;3.059;Right;0.807;-5;rctrl;36;1;48;0.752;0.0;0.428;2;1.608;ex5;1
5;1;0.0;5;3.067;Right;0.801;5;rctrl;37;1;48;0.751;0.0;0.442;2;1.608;ex5;1
5;-1;0.0;-5;2.628;Right;0.802;5;rctrl;38;-1;3;0.752;0.0;0.755;3;0.852;ex5;1
-5;1;0.0;-5;3.096;Left;0.801;5;lctrl;39;-1;48;0.751;0.0;0.471;0;1.604;ex5;1
5;-1;0.0;-5;2.489;Right;0.802;5;rctrl;40;-1;3;0.752;0.0;0.599;1;0.852;ex5;1
5;-1;0.0;-5;3.145;Right;0.801;-5;rctrl;41;1;48;0.751;0.0;0.52;1;1.604;ex5;1
5;-1;0.0;-5;2.33;Right;0.802;-5;rctrl;42;1;3;0.752;0.0;0.453;0;0.852;ex5;1
5;1;0.0;5;2.271;Right;0.801;-5;rctrl;43;-1;3;0.751;0.0;0.392;0;0.856;ex5;1
-5;-1;0.0;5;2.365;Left;0.801;-5;lctrl;44;-1;3;0.751;0.0;0.495;2;0.852;ex5;1
5;1;0.0;5;2.333;Right;0.801;-5;rctrl;45;-1;3;0.751;0.0;0.46;1;0.851;ex5;1
-5;-1;0.0;5;3.145;Left;0.802;-5;lctrl;46;-1;48;0.752;0.0;0.527;2;1.604;ex5;1
5;1;0.0;5;3.001;Right;0.802;-5;rctrl;47;-1;48;0.752;0.0;0.38;3;1.605;ex5;1
5;-1;0.0;-5;2.411;Right;0.805;5;rctrl;48;-1;3;0.755;0.0;0.529;2;0.856;ex5;1
-5;-1;0.0;5;2.443;Left;0.804;5;lctrl;49;1;3;0.754;0.0;0.56;0;0.855;ex5;1
-5;-1;0.0;5;2.302;Left;0.806;5;lctrl;50;1;3;0.756;0.0;0.422;3;0.856;ex5;1
5;1;0.0;5;3.051;Right;0.801;5;rctrl;51;1;48;0.751;0.0;0.421;3;1.604;ex5;1
-5;-1;0.0;5;2.442;Left;0.806;-5;lctrl;52;-1;3;0.755;0.0;0.56;0;0.856;ex5;1
-5;-1;0.0;5;2.287;Left;0.806;5;lctrl;53;1;3;0.756;0.0;0.398;1;0.856;ex5;1
5;1;0.0;5;3.02;Right;0.801;-5;rctrl;54;-1;48;0.751;0.0;0.415;1;1.602;ex5;1
5;1;0.0;5;3.041;Right;0.803;-5;rctrl;55;-1;48;0.753;0.0;0.418;2;1.603;ex5;1
5;1;0.0;5;2.328;Right;0.806;5;rctrl;56;1;3;0.751;0.0;0.448;0;0.856;ex5;1
-5;1;0.0;-5;2.282;Left;0.802;5;lctrl;57;-1;3;0.752;0.0;0.416;3;0.852;ex5;1
-5;-1;0.0;5;3.038;Left;0.802;-5;lctrl;58;-1;48;0.752;0.0;0.419;0;1.604;ex5;1
-5;-1;0.0;5;3.041;Left;0.803;5;lctrl;59;1;48;0.753;0.0;0.42;3;1.604;ex5;1
-5;1;0.0;-5;2.28;Left;0.806;-5;rctrl;60;1;3;0.756;0.0;0.386;2;0.857;ex5;0
-5;-1;0.0;5;2.97;Left;0.802;-5;lctrl;61;-1;48;0.752;0.0;0.364;3;1.605;ex5;1
5;1;0.0;5;3.055;Right;0.803;5;rctrl;62;1;48;0.753;0.0;0.424;1;1.605;ex5;1
-5;1;0.0;-5;2.318;Left;0.801;-5;lctrl;63;1;3;0.751;0.0;0.443;3;0.851;ex5;1
-5;1;0.0;-5;3.098;Left;0.801;-5;lctrl;64;1;48;0.751;0.0;0.466;2;1.608;ex5;1
-5;-1;0.0;5;2.363;Left;0.801;5;lctrl;1;1;3;0.751;0.0;0.495;1;0.857;ex6;1
-5;1;0.0;-5;3.173;Left;0.802;5;lctrl;2;-1;48;0.752;0.0;0.55;0;1.604;ex6;1
5;-1;0.0;-5;3.089;Right;0.802;5;rctrl;3;-1;48;0.752;0.0;0.459;0;1.603;ex6;1
5;1;0.0;5;3.004;Right;0.801;5;rctrl;4;1;48;0.751;0.0;0.388;2;1.602;ex6;1
-5;-1;0.0;5;3.073;Left;0.803;5;lctrl;5;1;48;0.753;0.0;0.446;3;1.605;ex6;1
5;-1;0.0;-5;3.254;Right;0.8;-5;rctrl;6;1;48;0.75;0.0;0.648;2;1.602;ex6;1
-5;-1;0.0;5;3.073;Left;0.802;-5;lctrl;7;-1;48;0.752;0.0;0.458;3;1.603;ex6;1
5;1;0.0;5;2.279;Right;0.802;5;rctrl;8;1;3;0.752;0.0;0.402;0;0.852;ex6;1
-5;1;0.0;-5;2.287;Left;0.802;5;lctrl;9;-1;3;0.752;0.0;0.415;1;0.857;ex6;1
-5;-1;0.0;5;2.242;Left;0.802;-5;lctrl;10;-1;3;0.752;0.0;0.37;3;0.852;ex6;1
-5;1;0.0;-5;2.954;Left;0.802;5;lctrl;11;-1;48;0.752;0.0;0.325;1;1.604;ex6;1
5;-1;0.0;-5;2.345;Right;0.802;5;rctrl;12;-1;3;0.752;0.0;0.48;0;0.853;ex6;1
5;-1;0.0;-5;2.301;Right;0.802;5;rctrl;13;-1;3;0.752;0.0;0.424;1;0.852;ex6;1
-5;-1;0.0;5;2.333;Left;0.806;-5;lctrl;14;-1;3;0.756;0.0;0.464;1;0.856;ex6;1
5;-1;0.0;-5;2.271;Right;0.801;-5;rctrl;15;1;3;0.751;0.0;0.393;3;0.851;ex6;1
-5;1;0.0;-5;2.38;Left;0.806;-5;lctrl;16;1;3;0.756;0.0;0.502;1;0.856;ex6;1
-5;-1;0.0;5;3.095;Left;0.802;5;lctrl;17;1;48;0.752;0.0;0.477;0;1.603;ex6;1
5;-1;0.0;-5;2.519;Right;0.802;-5;rctrl;18;1;3;0.752;0.0;0.646;1;0.852;ex6;1
-5;1;0.0;-5;3.095;Left;0.802;-5;lctrl;19;1;48;0.752;0.0;0.469;3;1.604;ex6;1
5;1;0.0;5;2.284;Right;0.801;-5;rctrl;20;-1;3;0.751;0.0;0.406;1;0.851;ex6;1
-5;1;0.0;-5;2.24;Left;0.805;5;lctrl;21;-1;3;0.755;0.0;0.367;3;0.855;ex6;1
-5;1;0.0;-5;3.026;Left;0.803;5;lctrl;22;-1;48;0.753;0.0;0.395;2;1.604;ex6;1
5;1;0.0;5;2.988;Right;0.801;-5;rctrl;23;-1;48;0.751;0.0;0.362;1;1.604;ex6;1
5;1;0.0;5;3.02;Right;0.805;5;rctrl;24;1;48;0.756;0.0;0.387;0;1.607;ex6;1
5;-1;0.0;-5;3.472;Right;0.801;5;rctrl;25;-1;48;0.751;0.0;0.844;1;1.604;ex6;1
5;1;0.0;5;2.333;Right;0.801;-5;rctrl;26;-1;3;0.751;0.0;0.462;2;0.851;ex6;1
-5;-1;0.0;5;2.567;Left;0.801;-5;lctrl;27;-1;3;0.751;0.0;0.69;2;0.851;ex6;1
5;1;0.0;5;2.331;Right;0.802;-5;rctrl;28;-1;3;0.752;0.0;0.456;0;0.853;ex6;1
5;-1;0.0;-5;2.614;Right;0.801;-5;rctrl;29;1;3;0.751;0.0;0.744;2;0.852;ex6;1
5;1;0.0;5;3.02;Right;0.8;-5;rctrl;30;-1;48;0.75;0.0;0.397;0;1.602;ex6;1
-5;-1;0.0;5;2.349;Left;0.8;5;lctrl;31;1;3;0.75;0.0;0.474;3;0.85;ex6;1
5;-1;0.0;-5;3.082;Right;0.801;-5;rctrl;32;1;48;0.751;0.0;0.452;3;1.604;ex6;1
5;-1;0.0;-5;2.349;Right;0.807;5;rctrl;33;-1;3;0.757;0.0;0.47;2;0.857;ex6;1
5;-1;0.0;-5;3.002;Right;0.802;5;rctrl;34;-1;48;0.752;0.0;0.374;3;1.604;ex6;1
5;-1;0.0;-5;3.02;Right;0.805;-5;rctrl;35;1;48;0.755;0.0;0.396;0;1.605;ex6;1
-5;-1;0.0;5;2.349;Left;0.802;5;lctrl;36;1;3;0.752;0.0;0.483;0;0.852;ex6;1
-5;1;0.0;-5;3.132;Left;0.801;5;lctrl;37;-1;48;0.751;0.0;0.507;3;1.603;ex6;1
-5;1;0.0;-5;3.063;Left;0.801;-5;lctrl;38;1;48;0.751;0.0;0.436;2;1.604;ex6;1
-5;-1;0.0;5;3.066;Left;0.801;-5;lctrl;39;-1;48;0.751;0.0;0.438;0;1.603;ex6;1
5;1;0.0;5;3.082;Right;0.801;5;rctrl;40;1;48;0.751;0.0;0.465;3;1.608;ex6;1
-5;-1;0.0;5;3.064;Left;0.802;5;lctrl;41;1;48;0.751;0.0;0.434;1;1.603;ex6;1
-5;1;0.0;-5;3.098;Left;0.801;-5;lctrl;42;1;48;0.751;0.0;0.475;0;1.604;ex6;1
5;1;0.0;5;2.318;Right;0.801;5;rctrl;43;1;3;0.751;0.0;0.435;1;0.851;ex6;1
5;1;0.0;5;2.973;Right;0.801;-5;rctrl;44;-1;48;0.751;0.0;0.351;2;1.603;ex6;1
5;1;0.0;5;2.28;Right;0.803;-5;rctrl;45;-1;3;0.752;0.0;0.403;3;0.853;ex6;1
-5;-1;0.0;5;2.24;Left;0.801;-5;rctrl;46;-1;3;0.751;0.0;0.35;0;0.851;ex6;0
5;1;0.0;5;3.076;Right;0.801;5;rctrl;47;1;48;0.751;0.0;0.453;1;1.608;ex6;1
5;1;0.0;5;2.263;Right;0.802;5;rctrl;48;1;3;0.752;0.0;0.39;3;0.852;ex6;1
-5;1;0.0;-5;2.333;Left;0.801;-5;lctrl;49;1;3;0.751;0.0;0.457;3;0.851;ex6;1
-5;-1;0.0;5;3.176;Left;0.801;-5;lctrl;50;-1;48;0.751;0.0;0.552;2;1.608;ex6;1
5;1;0.0;5;3.042;Right;0.802;-5;rctrl;51;-1;48;0.752;0.0;0.412;3;1.604;ex6;1
-5;-1;0.0;5;3.067;Left;0.801;-5;lctrl;52;-1;48;0.751;0.0;0.436;1;1.604;ex6;1
-5;1;0.0;-5;2.364;Left;0.801;5;lctrl;53;-1;3;0.751;0.0;0.492;2;0.852;ex6;1
-5;1;0.0;-5;2.255;Left;0.805;5;lctrl;54;-1;3;0.756;0.0;0.372;0;0.856;ex6;1
5;1;0.0;5;2.318;Right;0.801;5;rctrl;55;1;3;0.751;0.0;0.442;2;0.852;ex6;1
5;-1;0.0;-5;3.017;Right;0.802;5;lctrl;56;-1;48;0.752;0.0;0.362;2;1.605;ex6;0
5;-1;0.0;-5;3.223;Right;0.802;-5;rctrl;57;1;48;0.752;0.0;0.595;1;1.605;ex6;1
5;-1;0.0;-5;2.614;Right;0.801;5;rctrl;58;-1;3;0.751;0.0;0.742;3;0.851;ex6;1
5;-1;0.0;-5;2.24;Right;0.801;-5;rctrl;59;1;3;0.751;0.0;0.361;0;0.852;ex6;1
-5;1;0.0;-5;3.113;Left;0.801;-5;lctrl;60;1;48;0.751;0.0;0.49;1;1.604;ex6;1
-5;-1;0.0;5;3.066;Left;0.802;5;lctrl;61;1;48;0.752;0.0;0.437;2;1.609;ex6;1
-5;1;0.0;-5;2.299;Left;0.801;-5;lctrl;62;1;3;0.752;0.0;0.422;2;0.852;ex6;1
-5;1;0.0;-5;2.24;Left;0.801;-5;lctrl;63;1;3;0.751;0.0;0.373;0;0.852;ex6;1
-5;-1;0.0;5;2.312;Left;0.803;5;lctrl;64;1;3;0.752;0.0;0.44;2;0.853;ex6;1
5;1;0.0;5;3.003;Right;0.801;5;rctrl;1;1;48;0.751;0.0;0.378;1;1.604;ex7;1
5;1;0.0;5;3.018;Right;0.802;-5;rctrl;2;-1;48;0.752;0.0;0.39;1;1.605;ex7;1
-5;-1;0.0;5;2.349;Left;0.801;5;lctrl;3;1;3;0.751;0.0;0.478;3;0.851;ex7;1
-5;1;0.0;-5;2.393;Left;0.802;-5;lctrl;4;1;3;0.752;0.0;0.526;2;0.852;ex7;1
-5;-1;0.0;5;3.095;Left;0.802;-5;lctrl;5;-1;48;0.752;0.0;0.476;1;1.604;ex7;1
5;-1;0.0;-5;2.408;Right;0.802;-5;rctrl;6;1;3;0.752;0.0;0.548;0;0.852;ex7;1
5;-1;0.0;-5;3.0;Right;0.801;5;rctrl;7;-1;48;0.751;0.0;0.373;0;1.608;ex7;1
5;1;0.0;5;2.409;Right;0.802;-5;rctrl;8;-1;3;0.752;0.0;0.545;3;0.852;ex7;1
-5;-1;0.0;5;2.393;Left;0.802;-5;lctrl;9;-1;3;0.752;0.0;0.525;1;0.853;ex7;1
-5;-1;0.0;5;2.268;Left;0.802;-5;lctrl;10;-1;3;0.752;0.0;0.394;3;0.852;ex7;1
5;-1;0.0;-5;2.986;Right;0.802;-5;rctrl;11;1;48;0.752;0.0;0.357;0;1.605;ex7;1
-5;-1;0.0;5;3.082;Left;0.801;-5;lctrl;12;-1;48;0.751;0.0;0.457;0;1.608;ex7;1
5;-1;0.0;-5;3.048;Right;0.802;-5;rctrl;13;1;48;0.752;0.0;0.425;2;1.604;ex7;1
-5;-1;0.0;5;2.318;Left;0.801;5;lctrl;14;1;3;0.751;0.0;0.443;1;0.851;ex7;1
5;-1;0.0;-5;3.141;Right;0.801;5;rctrl;15;-1;48;0.752;0.0;0.523;3;1.604;ex7;1
-5;1;0.0;-5;3.232;Left;0.802;5;lctrl;16;-1;48;0.752;0.0;0.6;1;1.604;ex7;1
-5;1;0.0;-5;2.333;Left;0.801;-5;lctrl;17;1;3;0.751;0.0;0.466;3;0.851;ex7;1
5;-1;0.0;-5;2.367;Right;0.805;-5;rctrl;18;1;3;0.755;0.0;0.486;1;0.855;ex7;1
-5;1;0.0;-5;2.255;Left;0.801;5;lctrl;19;-1;3;0.751;0.0;0.38;3;0.851;ex7;1
-5;-1;0.0;5;4.188;Left;0.802;5;0;20;1;48;0.752;0.0;1381.84;1;1.605;ex7;0
-5;1;0.0;-5;3.041;Left;0.803;-5;lctrl;21;1;48;0.753;0.0;0.422;0;1.605;ex7;1
5;-1;0.0;-5;3.043;Right;0.807;-5;rctrl;22;1;48;0.757;0.0;0.418;3;1.609;ex7;1
5;-1;0.0;-5;2.947;Right;0.803;5;rctrl;23;-1;48;0.753;0.0;0.331;1;1.605;ex7;1
-5;1;0.0;-5;3.081;Left;0.802;5;lctrl;24;-1;48;0.752;0.0;0.459;2;1.609;ex7;1
-5;1;0.0;-5;2.937;Left;0.802;-5;lctrl;25;1;48;0.752;0.0;0.331;1;1.604;ex7;1
5;-1;0.0;-5;2.4;Right;0.803;5;rctrl;26;-1;3;0.753;0.0;0.52;0;0.853;ex7;1
-5;-1;0.0;5;3.113;Left;0.805;-5;lctrl;27;-1;48;0.755;0.0;0.479;2;1.607;ex7;1
5;-1;0.0;-5;2.302;Right;0.803;-5;rctrl;28;1;3;0.753;0.0;0.433;2;0.853;ex7;1
5;-1;0.0;-5;2.291;Right;0.803;5;rctrl;29;-1;3;0.752;0.0;0.426;3;0.853;ex7;1
-5;1;0.0;-5;2.266;Left;0.802;-5;lctrl;30;1;3;0.752;0.0;0.387;1;0.852;ex7;1
5;-1;0.0;-5;2.365;Right;0.806;5;rctrl;31;-1;3;0.756;0.0;0.487;2;0.856;ex7;1
-5;1;0.0;-5;2.331;Left;0.801;5;lctrl;32;-1;3;0.751;0.0;0.463;0;0.851;ex7;1
5;1;0.0;5;3.02;Right;0.801;-5;rctrl;33;-1;48;0.751;0.0;0.395;0;1.604;ex7;1
5;1;0.0;5;3.004;Right;0.803;5;rctrl;34;1;48;0.753;0.0;0.384;2;1.605;ex7;1
-5;1;0.0;-5;2.993;Left;0.803;-5;lctrl;35;1;48;0.753;0.0;0.37;3;1.605;ex7;1
-5;1;0.0;-5;3.03;Left;0.807;5;lctrl;36;-1;48;0.757;0.0;0.401;3;1.609;ex7;1
5;-1;0.0;-5;2.28;Right;0.803;-5;rctrl;37;1;3;0.752;0.0;0.402;3;0.853;ex7;1
-5;1;0.0;-5;2.505;Left;0.801;5;lctrl;38;-1;3;0.751;0.0;0.629;1;0.852;ex7;1
5;1;0.0;5;2.224;Right;0.801;-5;rctrl;39;-1;3;0.751;0.0;0.357;0;0.851;ex7;1
5;1;0.0;5;2.344;Right;0.802;5;rctrl;40;1;3;0.752;0.0;0.448;3;0.853;ex7;1
-5;-1;0.0;5;2.973;Left;0.801;5;rctrl;41;1;48;0.751;0.0;0.322;3;1.604;ex7;0
-5;-1;0.0;5;3.034;Left;0.801;5;lctrl;42;1;48;0.751;0.0;0.398;2;1.603;ex7;1
5;1;0.0;5;2.411;Right;0.801;-5;rctrl;43;-1;3;0.751;0.0;0.541;1;0.851;ex7;1
-5;-1;0.0;5;2.348;Left;0.806;-5;lctrl;44;-1;3;0.756;0.0;0.469;2;0.856;ex7;1
-5;-1;0.0;5;2.253;Left;0.801;5;lctrl;45;1;3;0.75;0.0;0.399;0;0.851;ex7;1
-5;-1;0.0;5;3.152;Left;0.803;-5;lctrl;46;-1;48;0.752;0.0;0.52;3;1.605;ex7;1
5;1;0.0;5;3.02;Right;0.807;5;rctrl;47;1;48;0.757;0.0;0.389;3;1.609;ex7;1
5;-1;0.0;-5;3.02;Right;0.801;5;lctrl;48;-1;48;0.751;0.0;0.376;2;1.604;ex7;0
-5;-1;0.0;5;2.472;Left;0.801;-5;lctrl;49;-1;3;0.751;0.0;0.596;0;0.851;ex7;1
5;1;0.0;5;2.333;Right;0.807;5;rctrl;50;1;3;0.757;0.0;0.464;1;0.857;ex7;1
-5;1;0.0;-5;2.286;Left;0.802;-5;lctrl;51;1;3;0.752;0.0;0.408;0;0.852;ex7;1
5;1;0.0;5;2.255;Right;0.805;5;rctrl;52;1;3;0.755;0.0;0.384;0;0.855;ex7;1
5;-1;0.0;-5;3.072;Right;0.803;-5;rctrl;53;1;48;0.753;0.0;0.451;1;1.605;ex7;1
5;1;0.0;5;2.963;Right;0.803;-5;rctrl;54;-1;48;0.753;0.0;0.346;2;1.605;ex7;1
-5;-1;0.0;5;2.378;Left;0.807;5;lctrl;55;1;3;0.756;0.0;0.506;2;0.857;ex7;1
5;1;0.0;5;2.296;Right;0.802;5;rctrl;56;1;3;0.752;0.0;0.416;2;0.852;ex7;1
5;1;0.0;5;3.332;Right;0.802;-5;rctrl;57;-1;48;0.752;0.0;0.698;3;1.603;ex7;1
-5;1;0.0;-5;2.427;Left;0.801;5;lctrl;58;-1;3;0.751;0.0;0.56;2;0.852;ex7;1
-5;1;0.0;-5;3.065;Left;0.807;-5;lctrl;59;1;48;0.756;0.0;0.44;2;1.608;ex7;1
-5;-1;0.0;5;3.11;Left;0.801;5;lctrl;60;1;48;0.75;0.0;0.49;0;1.603;ex7;1
-5;1;0.0;-5;2.986;Left;0.802;5;lctrl;61;-1;48;0.752;0.0;0.369;0;1.604;ex7;1
5;-1;0.0;-5;2.336;Right;0.806;5;rctrl;62;-1;3;0.756;0.0;0.456;1;0.856;ex7;1
5;1;0.0;5;2.973;Right;0.801;5;rctrl;63;1;48;0.751;0.0;0.349;0;1.604;ex7;1
5;1;0.0;5;2.357;Right;0.803;-5;rctrl;64;-1;3;0.752;0.0;0.465;2;0.853;ex7;1
